[{"nodes": {"0": {"id": 0, "label": "Scornvale", "x": -0.36199095022624433, "y": 0.014749262536873156, "reward": 60, "inEdge": [], "outEdge": [2, 3]}, "1": {"id": 1, "label": "Silentedge", "x": -0.13186813186813187, "y": 0.20648967551622419, "reward": 45, "inEdge": [2], "outEdge": [6, 5]}, "2": {"id": 2, "label": "Wolftrails", "x": -0.24434389140271492, "y": 0.25958702064896755, "reward": 45, "inEdge": [0], "outEdge": [1]}, "3": {"id": 3, "label": "Smoothmountain", "x": -0.2094376212023271, "y": -0.0752212389380531, "reward": 60, "inEdge": [0], "outEdge": [9, 5]}, "4": {"id": 4, "label": "Serpentcrag", "x": 0.3076923076923077, "y": 0.15486725663716813, "reward": 100, "inEdge": [6], "outEdge": []}, "5": {"id": 5, "label": "Purestone", "x": -0.09631544925662573, "y": -0.008849557522123894, "reward": 45, "inEdge": [3, 1], "outEdge": [6]}, "6": {"id": 6, "label": "Thornburg", "x": 0.15966386554621848, "y": 0.058997050147492625, "reward": 30, "inEdge": [1, 5, 9], "outEdge": [4, 7]}, "7": {"id": 7, "label": "Wildbend", "x": 0.30187459599224303, "y": -0.09144542772861357, "reward": 300, "inEdge": [6, 10, 8], "outEdge": []}, "8": {"id": 8, "label": "Silverstead", "x": 0.16095669036845509, "y": -0.084070796460177, "reward": 45, "inEdge": [9], "outEdge": [7]}, "9": {"id": 9, "label": "Greedpass", "x": 0.0019392372333548805, "y": -0.252212389380531, "reward": 60, "inEdge": [3], "outEdge": [6, 10, 8]}, "10": {"id": 10, "label": "Sinvale", "x": 0.20038784744667099, "y": -0.3112094395280236, "reward": 45, "inEdge": [9], "outEdge": [7]}}, "start_nodes": [0], "end_nodes": [7, 4], "clicks": [7, 4, 2, 3, 1, 5], "cost_total": 280, "cost_path": 220, "cost_expected": 287.5, "path": [0, 2, 1, 6, 4], "trial_type": "roadtrip-plugin", "trial_index": 22, "time_elapsed": 971961, "internal_node_id": "0.0-3.0-5.0-0.0", "PID": 1, "trial": 1, "condition": "control", "pa": 1.0}, {"nodes": {"0": {"id": 0, "label": "Goldcreak", "x": -0.27020038784744665, "y": 0.08259587020648967, "reward": 30, "inEdge": [], "outEdge": [2, 1]}, "1": {"id": 1, "label": "Crazerock", "x": 0.0019392372333548805, "y": 0.18141592920353983, "reward": 60, "inEdge": [0], "outEdge": [3, 4]}, "2": {"id": 2, "label": "Tanscar", "x": -0.06464124111182935, "y": -0.10766961651917405, "reward": 15, "inEdge": [0], "outEdge": [3, 8]}, "3": {"id": 3, "label": "Breakroost", "x": 0.12023270846800259, "y": 0.02064896755162242, "reward": 15, "inEdge": [2, 1], "outEdge": [7, 5]}, "4": {"id": 4, "label": "Lightbank", "x": 0.21266968325791855, "y": 0.1592920353982301, "reward": 15, "inEdge": [1], "outEdge": [10, 6]}, "5": {"id": 5, "label": "Slowalley", "x": 0.20749838396897222, "y": -0.10766961651917405, "reward": 60, "inEdge": [8, 3], "outEdge": [9]}, "6": {"id": 6, "label": "Wolfmesa", "x": 0.3400129282482224, "y": 0.09144542772861357, "reward": 300, "inEdge": [4], "outEdge": []}, "7": {"id": 7, "label": "Desertglen", "x": 0.31997414350355524, "y": -0.004424778761061947, "reward": 100, "inEdge": [3], "outEdge": []}, "8": {"id": 8, "label": "Crookgate", "x": 0.07369101486748546, "y": -0.2079646017699115, "reward": 60, "inEdge": [2], "outEdge": [5]}, "9": {"id": 9, "label": "Blankhallow", "x": 0.3044602456367162, "y": -0.27728613569321536, "reward": 400, "inEdge": [5], "outEdge": []}, "10": {"id": 10, "label": "Tuckersnag", "x": 0.28312863606981253, "y": 0.21091445427728614, "reward": 100, "inEdge": [4], "outEdge": []}}, "start_nodes": [0], "end_nodes": [10, 7, 9, 6], "clicks": [9, 7, 1, 2], "cost_total": 170, "cost_path": 130, "cost_expected": 192.5, "path": [0, 2, 3, 7], "trial_type": "roadtrip-plugin", "trial_index": 23, "time_elapsed": 1054901, "internal_node_id": "0.0-3.0-5.0-1.0", "PID": 1, "trial": 2, "condition": "control", "pa": 0.5}, {"nodes": {"0": {"id": 0, "label": "Meekcreak", "x": -0.3160956690368455, "y": 0.24336283185840707, "reward": 15, "inEdge": [], "outEdge": [1, 2, 7]}, "1": {"id": 1, "label": "Onyxtrails", "x": -0.04201680672268908, "y": 0.1902654867256637, "reward": 15, "inEdge": [0], "outEdge": [10, 5]}, "2": {"id": 2, "label": "Richport", "x": -0.28829993535875886, "y": -0.0752212389380531, "reward": 30, "inEdge": [0], "outEdge": [3, 8]}, "3": {"id": 3, "label": "Wolfdune", "x": 0.03878474466709761, "y": -0.09734513274336283, "reward": 45, "inEdge": [2, 8], "outEdge": [4]}, "4": {"id": 4, "label": "Longwater", "x": 0.19198448610213317, "y": -0.1430678466076696, "reward": 300, "inEdge": [3, 5], "outEdge": []}, "5": {"id": 5, "label": "Bittersprings", "x": 0.13380736910148675, "y": 0.007374631268436578, "reward": 30, "inEdge": [7, 1], "outEdge": [4, 6]}, "6": {"id": 6, "label": "Thornford", "x": 0.32191338073691017, "y": 0.0029498525073746312, "reward": 300, "inEdge": [5], "outEdge": []}, "7": {"id": 7, "label": "Shady Hallow", "x": -0.07433742727860375, "y": 0.02064896755162242, "reward": 45, "inEdge": [0], "outEdge": [5]}, "8": {"id": 8, "label": "Plainbellow", "x": -0.007110536522301228, "y": -0.24336283185840707, "reward": 30, "inEdge": [2], "outEdge": [3]}, "9": {"id": 9, "label": "Copper Chapel", "x": 0.29282482223658696, "y": 0.13421828908554573, "reward": 400, "inEdge": [10], "outEdge": []}, "10": {"id": 10, "label": "Ruby Port", "x": 0.2178409825468649, "y": 0.23893805309734514, "reward": 15, "inEdge": [1], "outEdge": [9]}}, "start_nodes": [0], "end_nodes": [9, 4, 6], "clicks": [6, 9, 4, 7, 1], "cost_total": 395, "cost_path": 345, "cost_expected": 402.5, "path": [0, 1, 5, 4], "trial_type": "roadtrip-plugin", "trial_index": 24, "time_elapsed": 1148112, "internal_node_id": "0.0-3.0-5.0-2.0", "PID": 1, "trial": 3, "condition": "control", "pa": 1.0}, {"nodes": {"0": {"id": 0, "label": "Blindridge", "x": -0.3341952165481577, "y": 0.1976401179941003, "reward": 60, "inEdge": [], "outEdge": [1, 2]}, "1": {"id": 1, "label": "Lordssnag", "x": -0.16289592760180996, "y": 0.19321533923303835, "reward": 30, "inEdge": [0], "outEdge": [3, 4]}, "2": {"id": 2, "label": "Venombutte", "x": -0.23206205559146736, "y": -0.08112094395280237, "reward": 60, "inEdge": [0], "outEdge": [3]}, "3": {"id": 3, "label": "Narrowville", "x": -0.01098901098901099, "y": -0.17699115044247787, "reward": 15, "inEdge": [1, 2], "outEdge": [6, 5]}, "4": {"id": 4, "label": "Leadtrail", "x": 0.028442146089204912, "y": 0.23008849557522124, "reward": 45, "inEdge": [1], "outEdge": [10, 8]}, "5": {"id": 5, "label": "Swifttusk", "x": 0.17647058823529413, "y": -0.24336283185840707, "reward": 15, "inEdge": [3], "outEdge": [7]}, "6": {"id": 6, "label": "Desertburg", "x": 0.24499030381383322, "y": 0.011799410029498525, "reward": 30, "inEdge": [3, 8], "outEdge": [9, 10, 7]}, "7": {"id": 7, "label": "Glumworth", "x": 0.3477698771816419, "y": -0.1415929203539823, "reward": 100, "inEdge": [5, 6], "outEdge": []}, "8": {"id": 8, "label": "Thornhollow", "x": 0.09566903684550743, "y": 0.05604719764011799, "reward": 30, "inEdge": [4], "outEdge": [6]}, "9": {"id": 9, "label": "Tuckerdune", "x": 0.3283775048480931, "y": 0.11209439528023599, "reward": 400, "inEdge": [6, 10], "outEdge": []}, "10": {"id": 10, "label": "Littlecanyon", "x": 0.2727860374919198, "y": 0.27876106194690264, "reward": 30, "inEdge": [4, 6], "outEdge": [9]}}, "start_nodes": [0], "end_nodes": [9, 7], "clicks": [7, 9, 2, 1, 5, 6], "cost_total": 220, "cost_path": 160, "cost_expected": 242.5, "path": [0, 1, 3, 5, 7], "trial_type": "roadtrip-plugin", "trial_index": 25, "time_elapsed": 1441964, "internal_node_id": "0.0-3.0-5.0-3.0", "PID": 1, "trial": 4, "condition": "control", "pa": 0.5}, {"nodes": {"0": {"id": 0, "label": "Whitecrag", "x": -0.31092436974789917, "y": -0.17256637168141592, "reward": 60, "inEdge": [], "outEdge": [1, 2]}, "1": {"id": 1, "label": "Numbbanks", "x": -0.15126050420168066, "y": 0.168141592920354, "reward": 45, "inEdge": [0], "outEdge": [7]}, "2": {"id": 2, "label": "Old Hill", "x": -0.09243697478991597, "y": 0.03687315634218289, "reward": 30, "inEdge": [0], "outEdge": [7, 3]}, "3": {"id": 3, "label": "Snakebank", "x": 0.014867485455720749, "y": -0.20206489675516223, "reward": 45, "inEdge": [2], "outEdge": [4]}, "4": {"id": 4, "label": "Strongcreak", "x": 0.10213316095669037, "y": -0.03687315634218289, "reward": 15, "inEdge": [7, 3], "outEdge": [8]}, "5": {"id": 5, "label": "Grimerock", "x": 0.27407886231415646, "y": -0.02064896755162242, "reward": 400, "inEdge": [8], "outEdge": []}, "6": {"id": 6, "label": "Silentcanyon", "x": 0.24628312863606983, "y": -0.18436578171091444, "reward": 100, "inEdge": [8], "outEdge": []}, "7": {"id": 7, "label": "Sandy Banks", "x": 0.011635423400129283, "y": 0.26548672566371684, "reward": 15, "inEdge": [1, 2], "outEdge": [4, 10]}, "8": {"id": 8, "label": "Courtdune", "x": 0.1997414350355527, "y": -0.0471976401179941, "reward": 60, "inEdge": [4], "outEdge": [9, 5, 6]}, "9": {"id": 9, "label": "Talonscar", "x": 0.19327731092436976, "y": 0.17994100294985252, "reward": 400, "inEdge": [10, 8], "outEdge": []}, "10": {"id": 10, "label": "Clearpoint", "x": 0.15061409179056237, "y": 0.3112094395280236, "reward": 60, "inEdge": [7], "outEdge": [9]}}, "start_nodes": [0], "end_nodes": [9, 6, 5], "clicks": [9, 5, 6], "cost_total": 280, "cost_path": 250, "cost_expected": 280, "path": [0, 2, 3, 4, 8, 6], "trial_type": "roadtrip-plugin", "trial_index": 26, "time_elapsed": 1556598, "internal_node_id": "0.0-3.0-5.0-4.0", "PID": 1, "trial": 5, "condition": "control", "pa": 1.0}, {"nodes": {"0": {"id": 0, "label": "Quickbanks", "x": -0.2275371687136393, "y": -0.09587020648967552, "reward": 60, "inEdge": [], "outEdge": [1, 2, 8]}, "1": {"id": 1, "label": "Copper Crag", "x": -0.08338720103425985, "y": 0.17699115044247787, "reward": 30, "inEdge": [0], "outEdge": [4]}, "2": {"id": 2, "label": "Scorncreak", "x": 0.012281835811247576, "y": -0.26253687315634217, "reward": 60, "inEdge": [0], "outEdge": [5, 9, 3]}, "3": {"id": 3, "label": "Thinpass", "x": 0.13574660633484162, "y": -0.02654867256637168, "reward": 45, "inEdge": [2, 8], "outEdge": [10, 6]}, "4": {"id": 4, "label": "Defiant Rock", "x": 0.12152553329023917, "y": 0.1415929203539823, "reward": 60, "inEdge": [1], "outEdge": [10]}, "5": {"id": 5, "label": "Bareriver", "x": 0.21331609566903684, "y": -0.14749262536873156, "reward": 45, "inEdge": [2], "outEdge": [6]}, "6": {"id": 6, "label": "Dodgelake", "x": 0.34841628959276016, "y": -0.13716814159292035, "reward": 100, "inEdge": [5, 3], "outEdge": []}, "7": {"id": 7, "label": "Dullgulch", "x": 0.2979961215255333, "y": -0.3230088495575221, "reward": 100, "inEdge": [9], "outEdge": []}, "8": {"id": 8, "label": "Paleflats", "x": -0.011635423400129283, "y": 0.017699115044247787, "reward": 60, "inEdge": [0], "outEdge": [3]}, "9": {"id": 9, "label": "Idlestream", "x": 0.23076923076923078, "y": -0.23008849557522124, "reward": 60, "inEdge": [2], "outEdge": [7]}, "10": {"id": 10, "label": "Drylanding", "x": 0.35423400129282484, "y": 0.032448377581120944, "reward": 300, "inEdge": [4, 3], "outEdge": []}}, "start_nodes": [0], "end_nodes": [6, 10, 7], "clicks": [7], "cost_total": 230, "cost_path": 220, "cost_expected": 185, "path": [0, 2, 9, 7], "trial_type": "roadtrip-plugin", "trial_index": 27, "time_elapsed": 1594818, "internal_node_id": "0.0-3.0-5.0-5.0", "PID": 1, "trial": 6, "condition": "control", "pa": 1.0}, {"nodes": {"0": {"id": 0, "label": "Wolfville", "x": -0.3049894588896697, "y": -0.24631268436578171, "reward": 60, "inEdge": [], "outEdge": [2]}, "1": {"id": 1, "label": "Rustbluff", "x": -0.14617006324666199, "y": 0.06342182890855458, "reward": 45, "inEdge": [2], "outEdge": [6, 8]}, "2": {"id": 2, "label": "Glumgorge", "x": -0.286718200983837, "y": -0.004424778761061947, "reward": 15, "inEdge": [0], "outEdge": [3, 1]}, "3": {"id": 3, "label": "Darkstone", "x": -0.05130007027406887, "y": -0.24631268436578171, "reward": 60, "inEdge": [2], "outEdge": [5, 8]}, "4": {"id": 4, "label": "Snakedune", "x": 0.24736472241742796, "y": 0.1696165191740413, "reward": 400, "inEdge": [6, 9], "outEdge": []}, "5": {"id": 5, "label": "Stiffbrook", "x": 0.1602248770203795, "y": -0.18141592920353983, "reward": 45, "inEdge": [3], "outEdge": [7, 10]}, "6": {"id": 6, "label": "Blindtooth", "x": 0.06394940267041462, "y": 0.06489675516224189, "reward": 60, "inEdge": [1], "outEdge": [4]}, "7": {"id": 7, "label": "Ragbanks", "x": 0.3239634574841883, "y": -0.14896755162241887, "reward": 100, "inEdge": [5, 9], "outEdge": []}, "8": {"id": 8, "label": "Steelcanyon", "x": 0.02881236823612087, "y": -0.08702064896755163, "reward": 30, "inEdge": [1, 3], "outEdge": [9]}, "9": {"id": 9, "label": "Swiftchapel", "x": 0.19395643007730148, "y": -0.016224188790560472, "reward": 15, "inEdge": [8], "outEdge": [7, 4]}, "10": {"id": 10, "label": "Dreadriver", "x": 0.2326071679550246, "y": -0.3303834808259587, "reward": 400, "inEdge": [5], "outEdge": []}}, "start_nodes": [0], "end_nodes": [7, 10, 4], "clicks": [10, 7, 3, 1], "cost_total": 245, "cost_path": 205, "cost_expected": 297.5, "path": [0, 2, 1, 8, 9, 7], "trial_type": "roadtrip-plugin", "trial_index": 28, "time_elapsed": 1660022, "internal_node_id": "0.0-3.0-5.0-6.0", "PID": 1, "trial": 7, "condition": "control", "pa": 0.6666666666666666}, {"nodes": {"0": {"id": 0, "label": "Bigstand", "x": -0.3387201034259858, "y": 0.007374631268436578, "reward": 30, "inEdge": [], "outEdge": [2, 1]}, "1": {"id": 1, "label": "Brokenroost", "x": -0.2592113768584357, "y": 0.17994100294985252, "reward": 60, "inEdge": [0], "outEdge": [3]}, "2": {"id": 2, "label": "Grand Mesa", "x": -0.25080801551389786, "y": -0.09587020648967552, "reward": 45, "inEdge": [0], "outEdge": [3]}, "3": {"id": 3, "label": "Wildbank", "x": -0.16289592760180996, "y": 0.08112094395280237, "reward": 30, "inEdge": [1, 2], "outEdge": [5, 4]}, "4": {"id": 4, "label": "Barrendowns", "x": 0.056884292178409825, "y": -0.016224188790560472, "reward": 45, "inEdge": [3], "outEdge": [9, 6]}, "5": {"id": 5, "label": "Gravelburg", "x": 0.04395604395604396, "y": -0.27876106194690264, "reward": 60, "inEdge": [3], "outEdge": [9]}, "6": {"id": 6, "label": "Flatcity", "x": 0.1777634130575307, "y": 0.08702064896755163, "reward": 30, "inEdge": [4], "outEdge": [10]}, "7": {"id": 7, "label": "Goldenhowl", "x": 0.31932773109243695, "y": 0.16519174041297935, "reward": 300, "inEdge": [9], "outEdge": []}, "8": {"id": 8, "label": "Tightriver", "x": 0.3380736910148675, "y": -0.11209439528023599, "reward": 60, "inEdge": [9], "outEdge": []}, "9": {"id": 9, "label": "Paleville", "x": 0.2359405300581771, "y": -0.12536873156342182, "reward": 45, "inEdge": [4, 5], "outEdge": [7, 8]}, "10": {"id": 10, "label": "Dusty Summit", "x": 0.24692954104718812, "y": 0.2949852507374631, "reward": 300, "inEdge": [6], "outEdge": []}}, "start_nodes": [0], "end_nodes": [7, 10], "clicks": [7, 10, 1, 2, 6, 9, 4], "cost_total": 520, "cost_path": 450, "cost_expected": 527.5, "path": [0, 2, 3, 4, 6, 10], "trial_type": "roadtrip-plugin", "trial_index": 29, "time_elapsed": 1774366, "internal_node_id": "0.0-3.0-5.0-7.0", "PID": 1, "trial": 8, "condition": "control", "pa": 1.0}, {"nodes": {"0": {"id": 0, "label": "Bigstand", "x": -0.3387201034259858, "y": 0.007374631268436578, "reward": 60, "inEdge": [], "outEdge": [2, 1]}, "1": {"id": 1, "label": "Brokenroost", "x": -0.2592113768584357, "y": 0.17994100294985252, "reward": 30, "inEdge": [0], "outEdge": [3]}, "2": {"id": 2, "label": "Grand Mesa", "x": -0.25080801551389786, "y": -0.09587020648967552, "reward": 45, "inEdge": [0], "outEdge": [3]}, "3": {"id": 3, "label": "Wildbank", "x": -0.16289592760180996, "y": 0.08112094395280237, "reward": 60, "inEdge": [1, 2], "outEdge": [5, 4]}, "4": {"id": 4, "label": "Barrendowns", "x": 0.056884292178409825, "y": -0.016224188790560472, "reward": 30, "inEdge": [3], "outEdge": [9, 6]}, "5": {"id": 5, "label": "Gravelburg", "x": 0.04395604395604396, "y": -0.27876106194690264, "reward": 45, "inEdge": [3], "outEdge": [9]}, "6": {"id": 6, "label": "Flatcity", "x": 0.1777634130575307, "y": 0.08702064896755163, "reward": 45, "inEdge": [4], "outEdge": [10]}, "7": {"id": 7, "label": "Goldenhowl", "x": 0.31932773109243695, "y": 0.16519174041297935, "reward": 200, "inEdge": [9], "outEdge": []}, "8": {"id": 8, "label": "Tightriver", "x": 0.3380736910148675, "y": -0.11209439528023599, "reward": 60, "inEdge": [9], "outEdge": []}, "9": {"id": 9, "label": "Paleville", "x": 0.2359405300581771, "y": -0.12536873156342182, "reward": 45, "inEdge": [4, 5], "outEdge": [7, 8]}, "10": {"id": 10, "label": "Dusty Summit", "x": 0.24692954104718812, "y": 0.2949852507374631, "reward": 400, "inEdge": [6], "outEdge": []}}, "start_nodes": [0], "end_nodes": [7, 10], "clicks": [10, 7, 1, 5, 2], "cost_total": 415, "cost_path": 365, "cost_expected": 392.5, "path": [0, 1, 3, 4, 9, 7], "trial_type": "roadtrip-plugin", "trial_index": 22, "time_elapsed": 1015883, "internal_node_id": "0.0-3.0-5.0-0.0", "PID": 2, "trial": 1, "condition": "control", "pa": 1.0}, {"nodes": {"0": {"id": 0, "label": "Goldcreak", "x": -0.27020038784744665, "y": 0.08259587020648967, "reward": 30, "inEdge": [], "outEdge": [2, 1]}, "1": {"id": 1, "label": "Crazerock", "x": 0.0019392372333548805, "y": 0.18141592920353983, "reward": 45, "inEdge": [0], "outEdge": [3, 4]}, "2": {"id": 2, "label": "Tanscar", "x": -0.06464124111182935, "y": -0.10766961651917405, "reward": 30, "inEdge": [0], "outEdge": [3, 8]}, "3": {"id": 3, "label": "Breakroost", "x": 0.12023270846800259, "y": 0.02064896755162242, "reward": 30, "inEdge": [2, 1], "outEdge": [7, 5]}, "4": {"id": 4, "label": "Lightbank", "x": 0.21266968325791855, "y": 0.1592920353982301, "reward": 60, "inEdge": [1], "outEdge": [10, 6]}, "5": {"id": 5, "label": "Slowalley", "x": 0.20749838396897222, "y": -0.10766961651917405, "reward": 15, "inEdge": [8, 3], "outEdge": [9]}, "6": {"id": 6, "label": "Wolfmesa", "x": 0.3400129282482224, "y": 0.09144542772861357, "reward": 400, "inEdge": [4], "outEdge": []}, "7": {"id": 7, "label": "Desertglen", "x": 0.31997414350355524, "y": -0.004424778761061947, "reward": 300, "inEdge": [3], "outEdge": []}, "8": {"id": 8, "label": "Crookgate", "x": 0.07369101486748546, "y": -0.2079646017699115, "reward": 45, "inEdge": [2], "outEdge": [5]}, "9": {"id": 9, "label": "Blankhallow", "x": 0.3044602456367162, "y": -0.27728613569321536, "reward": 400, "inEdge": [5], "outEdge": []}, "10": {"id": 10, "label": "Tuckersnag", "x": 0.28312863606981253, "y": 0.21091445427728614, "reward": 400, "inEdge": [4], "outEdge": []}}, "start_nodes": [0], "end_nodes": [10, 7, 9, 6], "clicks": [10, 6, 7, 9, 1, 2], "cost_total": 420, "cost_path": 360, "cost_expected": 427.5, "path": [0, 2, 3, 7], "trial_type": "roadtrip-plugin", "trial_index": 23, "time_elapsed": 1112489, "internal_node_id": "0.0-3.0-5.0-1.0", "PID": 2, "trial": 2, "condition": "control", "pa": 1.0}, {"nodes": {"0": {"id": 0, "label": "Meekcreak", "x": -0.3160956690368455, "y": 0.24336283185840707, "reward": 15, "inEdge": [], "outEdge": [1, 2, 7]}, "1": {"id": 1, "label": "Onyxtrails", "x": -0.04201680672268908, "y": 0.1902654867256637, "reward": 45, "inEdge": [0], "outEdge": [10, 5]}, "2": {"id": 2, "label": "Richport", "x": -0.28829993535875886, "y": -0.0752212389380531, "reward": 60, "inEdge": [0], "outEdge": [3, 8]}, "3": {"id": 3, "label": "Wolfdune", "x": 0.03878474466709761, "y": -0.09734513274336283, "reward": 60, "inEdge": [2, 8], "outEdge": [4]}, "4": {"id": 4, "label": "Longwater", "x": 0.19198448610213317, "y": -0.1430678466076696, "reward": 200, "inEdge": [3, 5], "outEdge": []}, "5": {"id": 5, "label": "Bittersprings", "x": 0.13380736910148675, "y": 0.007374631268436578, "reward": 60, "inEdge": [7, 1], "outEdge": [4, 6]}, "6": {"id": 6, "label": "Thornford", "x": 0.32191338073691017, "y": 0.0029498525073746312, "reward": 100, "inEdge": [5], "outEdge": []}, "7": {"id": 7, "label": "Shady Hallow", "x": -0.07433742727860375, "y": 0.02064896755162242, "reward": 60, "inEdge": [0], "outEdge": [5]}, "8": {"id": 8, "label": "Plainbellow", "x": -0.007110536522301228, "y": -0.24336283185840707, "reward": 15, "inEdge": [2], "outEdge": [3]}, "9": {"id": 9, "label": "Copper Chapel", "x": 0.29282482223658696, "y": 0.13421828908554573, "reward": 400, "inEdge": [10], "outEdge": []}, "10": {"id": 10, "label": "Ruby Port", "x": 0.2178409825468649, "y": 0.23893805309734514, "reward": 45, "inEdge": [1], "outEdge": [9]}}, "start_nodes": [0], "end_nodes": [9, 4, 6], "clicks": [4, 6, 9, 1, 7], "cost_total": 255, "cost_path": 205, "cost_expected": 232.5, "path": [0, 1, 5, 6], "trial_type": "roadtrip-plugin", "trial_index": 24, "time_elapsed": 1197252, "internal_node_id": "0.0-3.0-5.0-2.0", "PID": 2, "trial": 3, "condition": "control", "pa": 0.6666666666666666}, {"nodes": {"0": {"id": 0, "label": "Quickbanks", "x": -0.2275371687136393, "y": -0.09587020648967552, "reward": 15, "inEdge": [], "outEdge": [1, 2, 8]}, "1": {"id": 1, "label": "Copper Crag", "x": -0.08338720103425985, "y": 0.17699115044247787, "reward": 30, "inEdge": [0], "outEdge": [4]}, "2": {"id": 2, "label": "Scorncreak", "x": 0.012281835811247576, "y": -0.26253687315634217, "reward": 15, "inEdge": [0], "outEdge": [5, 9, 3]}, "3": {"id": 3, "label": "Thinpass", "x": 0.13574660633484162, "y": -0.02654867256637168, "reward": 45, "inEdge": [2, 8], "outEdge": [10, 6]}, "4": {"id": 4, "label": "Defiant Rock", "x": 0.12152553329023917, "y": 0.1415929203539823, "reward": 15, "inEdge": [1], "outEdge": [10]}, "5": {"id": 5, "label": "Bareriver", "x": 0.21331609566903684, "y": -0.14749262536873156, "reward": 15, "inEdge": [2], "outEdge": [6]}, "6": {"id": 6, "label": "Dodgelake", "x": 0.34841628959276016, "y": -0.13716814159292035, "reward": 100, "inEdge": [5, 3], "outEdge": []}, "7": {"id": 7, "label": "Dullgulch", "x": 0.2979961215255333, "y": -0.3230088495575221, "reward": 200, "inEdge": [9], "outEdge": []}, "8": {"id": 8, "label": "Paleflats", "x": -0.011635423400129283, "y": 0.017699115044247787, "reward": 45, "inEdge": [0], "outEdge": [3]}, "9": {"id": 9, "label": "Idlestream", "x": 0.23076923076923078, "y": -0.23008849557522124, "reward": 30, "inEdge": [2], "outEdge": [7]}, "10": {"id": 10, "label": "Drylanding", "x": 0.35423400129282484, "y": 0.032448377581120944, "reward": 400, "inEdge": [4, 3], "outEdge": []}}, "start_nodes": [0], "end_nodes": [6, 10, 7], "clicks": [10, 6, 2, 9, 3], "cost_total": 180, "cost_path": 130, "cost_expected": 202.5, "path": [0, 2, 5, 6], "trial_type": "roadtrip-plugin", "trial_index": 25, "time_elapsed": 1264786, "internal_node_id": "0.0-3.0-5.0-3.0", "PID": 2, "trial": 4, "condition": "control", "pa": 0.6666666666666666}, {"nodes": {"0": {"id": 0, "label": "Whitecrag", "x": -0.31092436974789917, "y": -0.17256637168141592, "reward": 60, "inEdge": [], "outEdge": [1, 2]}, "1": {"id": 1, "label": "Numbbanks", "x": -0.15126050420168066, "y": 0.168141592920354, "reward": 45, "inEdge": [0], "outEdge": [7]}, "2": {"id": 2, "label": "Old Hill", "x": -0.09243697478991597, "y": 0.03687315634218289, "reward": 30, "inEdge": [0], "outEdge": [7, 3]}, "3": {"id": 3, "label": "Snakebank", "x": 0.014867485455720749, "y": -0.20206489675516223, "reward": 45, "inEdge": [2], "outEdge": [4]}, "4": {"id": 4, "label": "Strongcreak", "x": 0.10213316095669037, "y": -0.03687315634218289, "reward": 45, "inEdge": [7, 3], "outEdge": [8]}, "5": {"id": 5, "label": "Grimerock", "x": 0.27407886231415646, "y": -0.02064896755162242, "reward": 100, "inEdge": [8], "outEdge": []}, "6": {"id": 6, "label": "Silentcanyon", "x": 0.24628312863606983, "y": -0.18436578171091444, "reward": 400, "inEdge": [8], "outEdge": []}, "7": {"id": 7, "label": "Sandy Banks", "x": 0.011635423400129283, "y": 0.26548672566371684, "reward": 45, "inEdge": [1, 2], "outEdge": [4, 10]}, "8": {"id": 8, "label": "Courtdune", "x": 0.1997414350355527, "y": -0.0471976401179941, "reward": 45, "inEdge": [4], "outEdge": [9, 5, 6]}, "9": {"id": 9, "label": "Talonscar", "x": 0.19327731092436976, "y": 0.17994100294985252, "reward": 200, "inEdge": [10, 8], "outEdge": []}, "10": {"id": 10, "label": "Clearpoint", "x": 0.15061409179056237, "y": 0.3112094395280236, "reward": 15, "inEdge": [7], "outEdge": [9]}}, "start_nodes": [0], "end_nodes": [9, 6, 5], "clicks": [6, 5, 9, 7, 2, 3], "cost_total": 340, "cost_path": 280, "cost_expected": 317.5, "path": [0, 1, 7, 4, 8, 5], "trial_type": "roadtrip-plugin", "trial_index": 26, "time_elapsed": 1357295, "internal_node_id": "0.0-3.0-5.0-4.0", "PID": 2, "trial": 5, "condition": "control", "pa": 0.6666666666666666}, {"nodes": {"0": {"id": 0, "label": "Blindridge", "x": -0.3341952165481577, "y": 0.1976401179941003, "reward": 15, "inEdge": [], "outEdge": [1, 2]}, "1": {"id": 1, "label": "Lordssnag", "x": -0.16289592760180996, "y": 0.19321533923303835, "reward": 60, "inEdge": [0], "outEdge": [3, 4]}, "2": {"id": 2, "label": "Venombutte", "x": -0.23206205559146736, "y": -0.08112094395280237, "reward": 45, "inEdge": [0], "outEdge": [3]}, "3": {"id": 3, "label": "Narrowville", "x": -0.01098901098901099, "y": -0.17699115044247787, "reward": 30, "inEdge": [1, 2], "outEdge": [6, 5]}, "4": {"id": 4, "label": "Leadtrail", "x": 0.028442146089204912, "y": 0.23008849557522124, "reward": 15, "inEdge": [1], "outEdge": [10, 8]}, "5": {"id": 5, "label": "Swifttusk", "x": 0.17647058823529413, "y": -0.24336283185840707, "reward": 45, "inEdge": [3], "outEdge": [7]}, "6": {"id": 6, "label": "Desertburg", "x": 0.24499030381383322, "y": 0.011799410029498525, "reward": 30, "inEdge": [3, 8], "outEdge": [9, 10, 7]}, "7": {"id": 7, "label": "Glumworth", "x": 0.3477698771816419, "y": -0.1415929203539823, "reward": 300, "inEdge": [5, 6], "outEdge": []}, "8": {"id": 8, "label": "Thornhollow", "x": 0.09566903684550743, "y": 0.05604719764011799, "reward": 15, "inEdge": [4], "outEdge": [6]}, "9": {"id": 9, "label": "Tuckerdune", "x": 0.3283775048480931, "y": 0.11209439528023599, "reward": 200, "inEdge": [6, 10], "outEdge": []}, "10": {"id": 10, "label": "Littlecanyon", "x": 0.2727860374919198, "y": 0.27876106194690264, "reward": 45, "inEdge": [4, 6], "outEdge": [9]}}, "start_nodes": [0], "end_nodes": [9, 7], "clicks": [7, 9, 10, 6], "cost_total": 345, "cost_path": 305, "cost_expected": 345, "path": [0, 2, 3, 6, 9], "trial_type": "roadtrip-plugin", "trial_index": 27, "time_elapsed": 1439329, "internal_node_id": "0.0-3.0-5.0-5.0", "PID": 2, "trial": 6, "condition": "control", "pa": 1.0}, {"nodes": {"0": {"id": 0, "label": "Wolfville", "x": -0.3049894588896697, "y": -0.24631268436578171, "reward": 60, "inEdge": [], "outEdge": [2]}, "1": {"id": 1, "label": "Rustbluff", "x": -0.14617006324666199, "y": 0.06342182890855458, "reward": 60, "inEdge": [2], "outEdge": [6, 8]}, "2": {"id": 2, "label": "Glumgorge", "x": -0.286718200983837, "y": -0.004424778761061947, "reward": 45, "inEdge": [0], "outEdge": [3, 1]}, "3": {"id": 3, "label": "Darkstone", "x": -0.05130007027406887, "y": -0.24631268436578171, "reward": 45, "inEdge": [2], "outEdge": [5, 8]}, "4": {"id": 4, "label": "Snakedune", "x": 0.24736472241742796, "y": 0.1696165191740413, "reward": 400, "inEdge": [6, 9], "outEdge": []}, "5": {"id": 5, "label": "Stiffbrook", "x": 0.1602248770203795, "y": -0.18141592920353983, "reward": 45, "inEdge": [3], "outEdge": [7, 10]}, "6": {"id": 6, "label": "Blindtooth", "x": 0.06394940267041462, "y": 0.06489675516224189, "reward": 15, "inEdge": [1], "outEdge": [4]}, "7": {"id": 7, "label": "Ragbanks", "x": 0.3239634574841883, "y": -0.14896755162241887, "reward": 300, "inEdge": [5, 9], "outEdge": []}, "8": {"id": 8, "label": "Steelcanyon", "x": 0.02881236823612087, "y": -0.08702064896755163, "reward": 15, "inEdge": [1, 3], "outEdge": [9]}, "9": {"id": 9, "label": "Swiftchapel", "x": 0.19395643007730148, "y": -0.016224188790560472, "reward": 30, "inEdge": [8], "outEdge": [7, 4]}, "10": {"id": 10, "label": "Dreadriver", "x": 0.2326071679550246, "y": -0.3303834808259587, "reward": 100, "inEdge": [5], "outEdge": []}}, "start_nodes": [0], "end_nodes": [7, 10, 4], "clicks": [4, 7, 10], "cost_total": 265, "cost_path": 235, "cost_expected": 242.5, "path": [0, 2, 3, 5, 10], "trial_type": "roadtrip-plugin", "trial_index": 28, "time_elapsed": 1483929, "internal_node_id": "0.0-3.0-5.0-6.0", "PID": 2, "trial": 7, "condition": "control", "pa": 1.0}, {"nodes": {"0": {"id": 0, "label": "Scornvale", "x": -0.36199095022624433, "y": 0.014749262536873156, "reward": 30, "inEdge": [], "outEdge": [2, 3]}, "1": {"id": 1, "label": "Silentedge", "x": -0.13186813186813187, "y": 0.20648967551622419, "reward": 15, "inEdge": [2], "outEdge": [6, 5]}, "2": {"id": 2, "label": "Wolftrails", "x": -0.24434389140271492, "y": 0.25958702064896755, "reward": 60, "inEdge": [0], "outEdge": [1]}, "3": {"id": 3, "label": "Smoothmountain", "x": -0.2094376212023271, "y": -0.0752212389380531, "reward": 15, "inEdge": [0], "outEdge": [9, 5]}, "4": {"id": 4, "label": "Serpentcrag", "x": 0.3076923076923077, "y": 0.15486725663716813, "reward": 100, "inEdge": [6], "outEdge": []}, "5": {"id": 5, "label": "Purestone", "x": -0.09631544925662573, "y": -0.008849557522123894, "reward": 15, "inEdge": [3, 1], "outEdge": [6]}, "6": {"id": 6, "label": "Thornburg", "x": 0.15966386554621848, "y": 0.058997050147492625, "reward": 30, "inEdge": [1, 5, 9], "outEdge": [4, 7]}, "7": {"id": 7, "label": "Wildbend", "x": 0.30187459599224303, "y": -0.09144542772861357, "reward": 300, "inEdge": [6, 10, 8], "outEdge": []}, "8": {"id": 8, "label": "Silverstead", "x": 0.16095669036845509, "y": -0.084070796460177, "reward": 15, "inEdge": [9], "outEdge": [7]}, "9": {"id": 9, "label": "Greedpass", "x": 0.0019392372333548805, "y": -0.252212389380531, "reward": 45, "inEdge": [3], "outEdge": [6, 10, 8]}, "10": {"id": 10, "label": "Sinvale", "x": 0.20038784744667099, "y": -0.3112094395280236, "reward": 30, "inEdge": [9], "outEdge": [7]}}, "start_nodes": [0], "end_nodes": [7, 4], "clicks": [7, 4, 9, 1, 5, 3], "cost_total": 220, "cost_path": 160, "cost_expected": 227.5, "path": [0, 3, 5, 6, 4], "trial_type": "roadtrip-plugin", "trial_index": 29, "time_elapsed": 1555556, "internal_node_id": "0.0-3.0-5.0-7.0", "PID": 2, "trial": 8, "condition": "control", "pa": 1.0}, {"nodes": {"0": {"id": 0, "label": "Meekcreak", "x": -0.3160956690368455, "y": 0.24336283185840707, "reward": 30, "inEdge": [], "outEdge": [1, 2, 7]}, "1": {"id": 1, "label": "Onyxtrails", "x": -0.04201680672268908, "y": 0.1902654867256637, "reward": 15, "inEdge": [0], "outEdge": [10, 5]}, "2": {"id": 2, "label": "Richport", "x": -0.28829993535875886, "y": -0.0752212389380531, "reward": 45, "inEdge": [0], "outEdge": [3, 8]}, "3": {"id": 3, "label": "Wolfdune", "x": 0.03878474466709761, "y": -0.09734513274336283, "reward": 30, "inEdge": [2, 8], "outEdge": [4]}, "4": {"id": 4, "label": "Longwater", "x": 0.19198448610213317, "y": -0.1430678466076696, "reward": 100, "inEdge": [3, 5], "outEdge": []}, "5": {"id": 5, "label": "Bittersprings", "x": 0.13380736910148675, "y": 0.007374631268436578, "reward": 30, "inEdge": [7, 1], "outEdge": [4, 6]}, "6": {"id": 6, "label": "Thornford", "x": 0.32191338073691017, "y": 0.0029498525073746312, "reward": 200, "inEdge": [5], "outEdge": []}, "7": {"id": 7, "label": "Shady Hallow", "x": -0.07433742727860375, "y": 0.02064896755162242, "reward": 15, "inEdge": [0], "outEdge": [5]}, "8": {"id": 8, "label": "Plainbellow", "x": -0.007110536522301228, "y": -0.24336283185840707, "reward": 60, "inEdge": [2], "outEdge": [3]}, "9": {"id": 9, "label": "Copper Chapel", "x": 0.29282482223658696, "y": 0.13421828908554573, "reward": 200, "inEdge": [10], "outEdge": []}, "10": {"id": 10, "label": "Ruby Port", "x": 0.2178409825468649, "y": 0.23893805309734514, "reward": 15, "inEdge": [1], "outEdge": [9]}}, "start_nodes": [0], "end_nodes": [9, 4, 6], "clicks": [5, 1, 4], "cost_total": 175, "cost_path": 145, "cost_expected": 175, "path": [0, 1, 5, 4], "trial_type": "roadtrip-plugin", "trial_index": 28, "time_elapsed": 709774, "internal_node_id": "0.0-3.0-5.0-0.0", "PID": 3, "trial": 1, "condition": "control", "pa": 0.3333333333333333}, {"nodes": {"0": {"id": 0, "label": "Wolfville", "x": -0.3049894588896697, "y": -0.24631268436578171, "reward": 30, "inEdge": [], "outEdge": [2]}, "1": {"id": 1, "label": "Rustbluff", "x": -0.14617006324666199, "y": 0.06342182890855458, "reward": 45, "inEdge": [2], "outEdge": [6, 8]}, "2": {"id": 2, "label": "Glumgorge", "x": -0.286718200983837, "y": -0.004424778761061947, "reward": 60, "inEdge": [0], "outEdge": [3, 1]}, "3": {"id": 3, "label": "Darkstone", "x": -0.05130007027406887, "y": -0.24631268436578171, "reward": 30, "inEdge": [2], "outEdge": [5, 8]}, "4": {"id": 4, "label": "Snakedune", "x": 0.24736472241742796, "y": 0.1696165191740413, "reward": 300, "inEdge": [6, 9], "outEdge": []}, "5": {"id": 5, "label": "Stiffbrook", "x": 0.1602248770203795, "y": -0.18141592920353983, "reward": 15, "inEdge": [3], "outEdge": [7, 10]}, "6": {"id": 6, "label": "Blindtooth", "x": 0.06394940267041462, "y": 0.06489675516224189, "reward": 30, "inEdge": [1], "outEdge": [4]}, "7": {"id": 7, "label": "Ragbanks", "x": 0.3239634574841883, "y": -0.14896755162241887, "reward": 400, "inEdge": [5, 9], "outEdge": []}, "8": {"id": 8, "label": "Steelcanyon", "x": 0.02881236823612087, "y": -0.08702064896755163, "reward": 45, "inEdge": [1, 3], "outEdge": [9]}, "9": {"id": 9, "label": "Swiftchapel", "x": 0.19395643007730148, "y": -0.016224188790560472, "reward": 15, "inEdge": [8], "outEdge": [7, 4]}, "10": {"id": 10, "label": "Dreadriver", "x": 0.2326071679550246, "y": -0.3303834808259587, "reward": 200, "inEdge": [5], "outEdge": []}}, "start_nodes": [0], "end_nodes": [7, 10, 4], "clicks": [3, 8, 10], "cost_total": 535, "cost_path": 505, "cost_expected": 385, "path": [0, 2, 3, 5, 7], "trial_type": "roadtrip-plugin", "trial_index": 29, "time_elapsed": 763170, "internal_node_id": "0.0-3.0-5.0-1.0", "PID": 3, "trial": 2, "condition": "control", "pa": 0.3333333333333333}, {"nodes": {"0": {"id": 0, "label": "Quickbanks", "x": -0.2275371687136393, "y": -0.09587020648967552, "reward": 15, "inEdge": [], "outEdge": [1, 2, 8]}, "1": {"id": 1, "label": "Copper Crag", "x": -0.08338720103425985, "y": 0.17699115044247787, "reward": 15, "inEdge": [0], "outEdge": [4]}, "2": {"id": 2, "label": "Scorncreak", "x": 0.012281835811247576, "y": -0.26253687315634217, "reward": 60, "inEdge": [0], "outEdge": [5, 9, 3]}, "3": {"id": 3, "label": "Thinpass", "x": 0.13574660633484162, "y": -0.02654867256637168, "reward": 30, "inEdge": [2, 8], "outEdge": [10, 6]}, "4": {"id": 4, "label": "Defiant Rock", "x": 0.12152553329023917, "y": 0.1415929203539823, "reward": 15, "inEdge": [1], "outEdge": [10]}, "5": {"id": 5, "label": "Bareriver", "x": 0.21331609566903684, "y": -0.14749262536873156, "reward": 45, "inEdge": [2], "outEdge": [6]}, "6": {"id": 6, "label": "Dodgelake", "x": 0.34841628959276016, "y": -0.13716814159292035, "reward": 100, "inEdge": [5, 3], "outEdge": []}, "7": {"id": 7, "label": "Dullgulch", "x": 0.2979961215255333, "y": -0.3230088495575221, "reward": 300, "inEdge": [9], "outEdge": []}, "8": {"id": 8, "label": "Paleflats", "x": -0.011635423400129283, "y": 0.017699115044247787, "reward": 45, "inEdge": [0], "outEdge": [3]}, "9": {"id": 9, "label": "Idlestream", "x": 0.23076923076923078, "y": -0.23008849557522124, "reward": 60, "inEdge": [2], "outEdge": [7]}, "10": {"id": 10, "label": "Drylanding", "x": 0.35423400129282484, "y": 0.032448377581120944, "reward": 400, "inEdge": [4, 3], "outEdge": []}}, "start_nodes": [0], "end_nodes": [6, 10, 7], "clicks": [2, 8, 1, 3, 10], "cost_total": 225, "cost_path": 175, "cost_expected": 375, "path": [0, 8, 3, 6], "trial_type": "roadtrip-plugin", "trial_index": 30, "time_elapsed": 833378, "internal_node_id": "0.0-3.0-5.0-2.0", "PID": 3, "trial": 3, "condition": "control", "pa": 0.0}, {"nodes": {"0": {"id": 0, "label": "Blindridge", "x": -0.3341952165481577, "y": 0.1976401179941003, "reward": 45, "inEdge": [], "outEdge": [1, 2]}, "1": {"id": 1, "label": "Lordssnag", "x": -0.16289592760180996, "y": 0.19321533923303835, "reward": 45, "inEdge": [0], "outEdge": [3, 4]}, "2": {"id": 2, "label": "Venombutte", "x": -0.23206205559146736, "y": -0.08112094395280237, "reward": 60, "inEdge": [0], "outEdge": [3]}, "3": {"id": 3, "label": "Narrowville", "x": -0.01098901098901099, "y": -0.17699115044247787, "reward": 45, "inEdge": [1, 2], "outEdge": [6, 5]}, "4": {"id": 4, "label": "Leadtrail", "x": 0.028442146089204912, "y": 0.23008849557522124, "reward": 15, "inEdge": [1], "outEdge": [10, 8]}, "5": {"id": 5, "label": "Swifttusk", "x": 0.17647058823529413, "y": -0.24336283185840707, "reward": 15, "inEdge": [3], "outEdge": [7]}, "6": {"id": 6, "label": "Desertburg", "x": 0.24499030381383322, "y": 0.011799410029498525, "reward": 60, "inEdge": [3, 8], "outEdge": [9, 10, 7]}, "7": {"id": 7, "label": "Glumworth", "x": 0.3477698771816419, "y": -0.1415929203539823, "reward": 400, "inEdge": [5, 6], "outEdge": []}, "8": {"id": 8, "label": "Thornhollow", "x": 0.09566903684550743, "y": 0.05604719764011799, "reward": 60, "inEdge": [4], "outEdge": [6]}, "9": {"id": 9, "label": "Tuckerdune", "x": 0.3283775048480931, "y": 0.11209439528023599, "reward": 100, "inEdge": [6, 10], "outEdge": []}, "10": {"id": 10, "label": "Littlecanyon", "x": 0.2727860374919198, "y": 0.27876106194690264, "reward": 30, "inEdge": [4, 6], "outEdge": [9]}}, "start_nodes": [0], "end_nodes": [9, 7], "clicks": [6, 10, 9], "cost_total": 220, "cost_path": 190, "cost_expected": 235, "path": [0, 1, 4, 10, 9], "trial_type": "roadtrip-plugin", "trial_index": 31, "time_elapsed": 882033, "internal_node_id": "0.0-3.0-5.0-3.0", "PID": 3, "trial": 4, "condition": "control", "pa": 0.0}, {"nodes": {"0": {"id": 0, "label": "Whitecrag", "x": -0.31092436974789917, "y": -0.17256637168141592, "reward": 15, "inEdge": [], "outEdge": [1, 2]}, "1": {"id": 1, "label": "Numbbanks", "x": -0.15126050420168066, "y": 0.168141592920354, "reward": 45, "inEdge": [0], "outEdge": [7]}, "2": {"id": 2, "label": "Old Hill", "x": -0.09243697478991597, "y": 0.03687315634218289, "reward": 60, "inEdge": [0], "outEdge": [7, 3]}, "3": {"id": 3, "label": "Snakebank", "x": 0.014867485455720749, "y": -0.20206489675516223, "reward": 15, "inEdge": [2], "outEdge": [4]}, "4": {"id": 4, "label": "Strongcreak", "x": 0.10213316095669037, "y": -0.03687315634218289, "reward": 15, "inEdge": [7, 3], "outEdge": [8]}, "5": {"id": 5, "label": "Grimerock", "x": 0.27407886231415646, "y": -0.02064896755162242, "reward": 300, "inEdge": [8], "outEdge": []}, "6": {"id": 6, "label": "Silentcanyon", "x": 0.24628312863606983, "y": -0.18436578171091444, "reward": 100, "inEdge": [8], "outEdge": []}, "7": {"id": 7, "label": "Sandy Banks", "x": 0.011635423400129283, "y": 0.26548672566371684, "reward": 15, "inEdge": [1, 2], "outEdge": [4, 10]}, "8": {"id": 8, "label": "Courtdune", "x": 0.1997414350355527, "y": -0.0471976401179941, "reward": 45, "inEdge": [4], "outEdge": [9, 5, 6]}, "9": {"id": 9, "label": "Talonscar", "x": 0.19327731092436976, "y": 0.17994100294985252, "reward": 100, "inEdge": [10, 8], "outEdge": []}, "10": {"id": 10, "label": "Clearpoint", "x": 0.15061409179056237, "y": 0.3112094395280236, "reward": 60, "inEdge": [7], "outEdge": [9]}}, "start_nodes": [0], "end_nodes": [9, 6, 5], "clicks": [8, 9, 2, 1], "cost_total": 260, "cost_path": 220, "cost_expected": 260, "path": [0, 1, 7, 10, 9], "trial_type": "roadtrip-plugin", "trial_index": 32, "time_elapsed": 938746, "internal_node_id": "0.0-3.0-5.0-4.0", "PID": 3, "trial": 5, "condition": "control", "pa": 0.3333333333333333}, {"nodes": {"0": {"id": 0, "label": "Goldcreak", "x": -0.27020038784744665, "y": 0.08259587020648967, "reward": 15, "inEdge": [], "outEdge": [2, 1]}, "1": {"id": 1, "label": "Crazerock", "x": 0.0019392372333548805, "y": 0.18141592920353983, "reward": 15, "inEdge": [0], "outEdge": [3, 4]}, "2": {"id": 2, "label": "Tanscar", "x": -0.06464124111182935, "y": -0.10766961651917405, "reward": 45, "inEdge": [0], "outEdge": [3, 8]}, "3": {"id": 3, "label": "Breakroost", "x": 0.12023270846800259, "y": 0.02064896755162242, "reward": 45, "inEdge": [2, 1], "outEdge": [7, 5]}, "4": {"id": 4, "label": "Lightbank", "x": 0.21266968325791855, "y": 0.1592920353982301, "reward": 30, "inEdge": [1], "outEdge": [10, 6]}, "5": {"id": 5, "label": "Slowalley", "x": 0.20749838396897222, "y": -0.10766961651917405, "reward": 45, "inEdge": [8, 3], "outEdge": [9]}, "6": {"id": 6, "label": "Wolfmesa", "x": 0.3400129282482224, "y": 0.09144542772861357, "reward": 200, "inEdge": [4], "outEdge": []}, "7": {"id": 7, "label": "Desertglen", "x": 0.31997414350355524, "y": -0.004424778761061947, "reward": 100, "inEdge": [3], "outEdge": []}, "8": {"id": 8, "label": "Crookgate", "x": 0.07369101486748546, "y": -0.2079646017699115, "reward": 45, "inEdge": [2], "outEdge": [5]}, "9": {"id": 9, "label": "Blankhallow", "x": 0.3044602456367162, "y": -0.27728613569321536, "reward": 300, "inEdge": [5], "outEdge": []}, "10": {"id": 10, "label": "Tuckersnag", "x": 0.28312863606981253, "y": 0.21091445427728614, "reward": 100, "inEdge": [4], "outEdge": []}}, "start_nodes": [0], "end_nodes": [10, 7, 9, 6], "clicks": [10], "cost_total": 155, "cost_path": 145, "cost_expected": 185, "path": [0, 1, 4, 10], "trial_type": "roadtrip-plugin", "trial_index": 33, "time_elapsed": 964349, "internal_node_id": "0.0-3.0-5.0-5.0", "PID": 3, "trial": 6, "condition": "control", "pa": 1.0}, {"nodes": {"0": {"id": 0, "label": "Scornvale", "x": -0.36199095022624433, "y": 0.014749262536873156, "reward": 15, "inEdge": [], "outEdge": [2, 3]}, "1": {"id": 1, "label": "Silentedge", "x": -0.13186813186813187, "y": 0.20648967551622419, "reward": 30, "inEdge": [2], "outEdge": [6, 5]}, "2": {"id": 2, "label": "Wolftrails", "x": -0.24434389140271492, "y": 0.25958702064896755, "reward": 15, "inEdge": [0], "outEdge": [1]}, "3": {"id": 3, "label": "Smoothmountain", "x": -0.2094376212023271, "y": -0.0752212389380531, "reward": 30, "inEdge": [0], "outEdge": [9, 5]}, "4": {"id": 4, "label": "Serpentcrag", "x": 0.3076923076923077, "y": 0.15486725663716813, "reward": 100, "inEdge": [6], "outEdge": []}, "5": {"id": 5, "label": "Purestone", "x": -0.09631544925662573, "y": -0.008849557522123894, "reward": 30, "inEdge": [3, 1], "outEdge": [6]}, "6": {"id": 6, "label": "Thornburg", "x": 0.15966386554621848, "y": 0.058997050147492625, "reward": 45, "inEdge": [1, 5, 9], "outEdge": [4, 7]}, "7": {"id": 7, "label": "Wildbend", "x": 0.30187459599224303, "y": -0.09144542772861357, "reward": 400, "inEdge": [6, 10, 8], "outEdge": []}, "8": {"id": 8, "label": "Silverstead", "x": 0.16095669036845509, "y": -0.084070796460177, "reward": 45, "inEdge": [9], "outEdge": [7]}, "9": {"id": 9, "label": "Greedpass", "x": 0.0019392372333548805, "y": -0.252212389380531, "reward": 60, "inEdge": [3], "outEdge": [6, 10, 8]}, "10": {"id": 10, "label": "Sinvale", "x": 0.20038784744667099, "y": -0.3112094395280236, "reward": 45, "inEdge": [9], "outEdge": [7]}}, "start_nodes": [0], "end_nodes": [7, 4], "clicks": [4, 2], "cost_total": 210, "cost_path": 190, "cost_expected": 210, "path": [0, 2, 1, 6, 4], "trial_type": "roadtrip-plugin", "trial_index": 34, "time_elapsed": 1003593, "internal_node_id": "0.0-3.0-5.0-6.0", "PID": 3, "trial": 7, "condition": "control", "pa": 0.5}, {"nodes": {"0": {"id": 0, "label": "Bigstand", "x": -0.3387201034259858, "y": 0.007374631268436578, "reward": 60, "inEdge": [], "outEdge": [2, 1]}, "1": {"id": 1, "label": "Brokenroost", "x": -0.2592113768584357, "y": 0.17994100294985252, "reward": 45, "inEdge": [0], "outEdge": [3]}, "2": {"id": 2, "label": "Grand Mesa", "x": -0.25080801551389786, "y": -0.09587020648967552, "reward": 15, "inEdge": [0], "outEdge": [3]}, "3": {"id": 3, "label": "Wildbank", "x": -0.16289592760180996, "y": 0.08112094395280237, "reward": 15, "inEdge": [1, 2], "outEdge": [5, 4]}, "4": {"id": 4, "label": "Barrendowns", "x": 0.056884292178409825, "y": -0.016224188790560472, "reward": 15, "inEdge": [3], "outEdge": [9, 6]}, "5": {"id": 5, "label": "Gravelburg", "x": 0.04395604395604396, "y": -0.27876106194690264, "reward": 30, "inEdge": [3], "outEdge": [9]}, "6": {"id": 6, "label": "Flatcity", "x": 0.1777634130575307, "y": 0.08702064896755163, "reward": 15, "inEdge": [4], "outEdge": [10]}, "7": {"id": 7, "label": "Goldenhowl", "x": 0.31932773109243695, "y": 0.16519174041297935, "reward": 300, "inEdge": [9], "outEdge": []}, "8": {"id": 8, "label": "Tightriver", "x": 0.3380736910148675, "y": -0.11209439528023599, "reward": 30, "inEdge": [9], "outEdge": []}, "9": {"id": 9, "label": "Paleville", "x": 0.2359405300581771, "y": -0.12536873156342182, "reward": 15, "inEdge": [4, 5], "outEdge": [7, 8]}, "10": {"id": 10, "label": "Dusty Summit", "x": 0.24692954104718812, "y": 0.2949852507374631, "reward": 100, "inEdge": [6], "outEdge": []}}, "start_nodes": [0], "end_nodes": [7, 10], "clicks": [10], "cost_total": 200, "cost_path": 190, "cost_expected": 260, "path": [0, 1, 3, 4, 6, 10], "trial_type": "roadtrip-plugin", "trial_index": 35, "time_elapsed": 1028292, "internal_node_id": "0.0-3.0-5.0-7.0", "PID": 3, "trial": 8, "condition": "control", "pa": 1.0}, {"nodes": {"0": {"id": 0, "label": "Meekcreak", "x": -0.3160956690368455, "y": 0.24336283185840707, "reward": 45, "inEdge": [], "outEdge": [1, 2, 7]}, "1": {"id": 1, "label": "Onyxtrails", "x": -0.04201680672268908, "y": 0.1902654867256637, "reward": 60, "inEdge": [0], "outEdge": [10, 5]}, "2": {"id": 2, "label": "Richport", "x": -0.28829993535875886, "y": -0.0752212389380531, "reward": 60, "inEdge": [0], "outEdge": [3, 8]}, "3": {"id": 3, "label": "Wolfdune", "x": 0.03878474466709761, "y": -0.09734513274336283, "reward": 15, "inEdge": [2, 8], "outEdge": [4]}, "4": {"id": 4, "label": "Longwater", "x": 0.19198448610213317, "y": -0.1430678466076696, "reward": 200, "inEdge": [3, 5], "outEdge": []}, "5": {"id": 5, "label": "Bittersprings", "x": 0.13380736910148675, "y": 0.007374631268436578, "reward": 60, "inEdge": [7, 1], "outEdge": [4, 6]}, "6": {"id": 6, "label": "Thornford", "x": 0.32191338073691017, "y": 0.0029498525073746312, "reward": 100, "inEdge": [5], "outEdge": []}, "7": {"id": 7, "label": "Shady Hallow", "x": -0.07433742727860375, "y": 0.02064896755162242, "reward": 60, "inEdge": [0], "outEdge": [5]}, "8": {"id": 8, "label": "Plainbellow", "x": -0.007110536522301228, "y": -0.24336283185840707, "reward": 60, "inEdge": [2], "outEdge": [3]}, "9": {"id": 9, "label": "Copper Chapel", "x": 0.29282482223658696, "y": 0.13421828908554573, "reward": 300, "inEdge": [10], "outEdge": []}, "10": {"id": 10, "label": "Ruby Port", "x": 0.2178409825468649, "y": 0.23893805309734514, "reward": 45, "inEdge": [1], "outEdge": [9]}}, "start_nodes": [0], "end_nodes": [9, 4, 6], "clicks": [4, 9, 6], "cost_total": 250, "cost_path": 220, "cost_expected": 205, "path": [0, 7, 5, 6], "trial_type": "roadtrip-plugin", "trial_index": 26, "time_elapsed": 1199857, "internal_node_id": "0.0-3.0-5.0-0.0", "PID": 4, "trial": 1, "condition": "control", "pa": 1.0}, {"nodes": {"0": {"id": 0, "label": "Scornvale", "x": -0.36199095022624433, "y": 0.014749262536873156, "reward": 15, "inEdge": [], "outEdge": [2, 3]}, "1": {"id": 1, "label": "Silentedge", "x": -0.13186813186813187, "y": 0.20648967551622419, "reward": 45, "inEdge": [2], "outEdge": [6, 5]}, "2": {"id": 2, "label": "Wolftrails", "x": -0.24434389140271492, "y": 0.25958702064896755, "reward": 45, "inEdge": [0], "outEdge": [1]}, "3": {"id": 3, "label": "Smoothmountain", "x": -0.2094376212023271, "y": -0.0752212389380531, "reward": 15, "inEdge": [0], "outEdge": [9, 5]}, "4": {"id": 4, "label": "Serpentcrag", "x": 0.3076923076923077, "y": 0.15486725663716813, "reward": 200, "inEdge": [6], "outEdge": []}, "5": {"id": 5, "label": "Purestone", "x": -0.09631544925662573, "y": -0.008849557522123894, "reward": 45, "inEdge": [3, 1], "outEdge": [6]}, "6": {"id": 6, "label": "Thornburg", "x": 0.15966386554621848, "y": 0.058997050147492625, "reward": 60, "inEdge": [1, 5, 9], "outEdge": [4, 7]}, "7": {"id": 7, "label": "Wildbend", "x": 0.30187459599224303, "y": -0.09144542772861357, "reward": 400, "inEdge": [6, 10, 8], "outEdge": []}, "8": {"id": 8, "label": "Silverstead", "x": 0.16095669036845509, "y": -0.084070796460177, "reward": 30, "inEdge": [9], "outEdge": [7]}, "9": {"id": 9, "label": "Greedpass", "x": 0.0019392372333548805, "y": -0.252212389380531, "reward": 45, "inEdge": [3], "outEdge": [6, 10, 8]}, "10": {"id": 10, "label": "Sinvale", "x": 0.20038784744667099, "y": -0.3112094395280236, "reward": 60, "inEdge": [9], "outEdge": [7]}}, "start_nodes": [0], "end_nodes": [7, 4], "clicks": [7, 4, 10, 6], "cost_total": 360, "cost_path": 320, "cost_expected": 375, "path": [0, 3, 9, 6, 4], "trial_type": "roadtrip-plugin", "trial_index": 27, "time_elapsed": 1291403, "internal_node_id": "0.0-3.0-5.0-1.0", "PID": 4, "trial": 2, "condition": "control", "pa": 1.0}, {"nodes": {"0": {"id": 0, "label": "Wolfville", "x": -0.3049894588896697, "y": -0.24631268436578171, "reward": 15, "inEdge": [], "outEdge": [2]}, "1": {"id": 1, "label": "Rustbluff", "x": -0.14617006324666199, "y": 0.06342182890855458, "reward": 30, "inEdge": [2], "outEdge": [6, 8]}, "2": {"id": 2, "label": "Glumgorge", "x": -0.286718200983837, "y": -0.004424778761061947, "reward": 45, "inEdge": [0], "outEdge": [3, 1]}, "3": {"id": 3, "label": "Darkstone", "x": -0.05130007027406887, "y": -0.24631268436578171, "reward": 15, "inEdge": [2], "outEdge": [5, 8]}, "4": {"id": 4, "label": "Snakedune", "x": 0.24736472241742796, "y": 0.1696165191740413, "reward": 400, "inEdge": [6, 9], "outEdge": []}, "5": {"id": 5, "label": "Stiffbrook", "x": 0.1602248770203795, "y": -0.18141592920353983, "reward": 60, "inEdge": [3], "outEdge": [7, 10]}, "6": {"id": 6, "label": "Blindtooth", "x": 0.06394940267041462, "y": 0.06489675516224189, "reward": 45, "inEdge": [1], "outEdge": [4]}, "7": {"id": 7, "label": "Ragbanks", "x": 0.3239634574841883, "y": -0.14896755162241887, "reward": 300, "inEdge": [5, 9], "outEdge": []}, "8": {"id": 8, "label": "Steelcanyon", "x": 0.02881236823612087, "y": -0.08702064896755163, "reward": 15, "inEdge": [1, 3], "outEdge": [9]}, "9": {"id": 9, "label": "Swiftchapel", "x": 0.19395643007730148, "y": -0.016224188790560472, "reward": 15, "inEdge": [8], "outEdge": [7, 4]}, "10": {"id": 10, "label": "Dreadriver", "x": 0.2326071679550246, "y": -0.3303834808259587, "reward": 300, "inEdge": [5], "outEdge": []}}, "start_nodes": [0], "end_nodes": [7, 10, 4], "clicks": [10, 7, 4, 6], "cost_total": 460, "cost_path": 420, "cost_expected": 452.5, "path": [0, 2, 3, 5, 10], "trial_type": "roadtrip-plugin", "trial_index": 28, "time_elapsed": 1379068, "internal_node_id": "0.0-3.0-5.0-2.0", "PID": 4, "trial": 3, "condition": "control", "pa": 1.0}, {"nodes": {"0": {"id": 0, "label": "Whitecrag", "x": -0.31092436974789917, "y": -0.17256637168141592, "reward": 15, "inEdge": [], "outEdge": [1, 2]}, "1": {"id": 1, "label": "Numbbanks", "x": -0.15126050420168066, "y": 0.168141592920354, "reward": 45, "inEdge": [0], "outEdge": [7]}, "2": {"id": 2, "label": "Old Hill", "x": -0.09243697478991597, "y": 0.03687315634218289, "reward": 45, "inEdge": [0], "outEdge": [7, 3]}, "3": {"id": 3, "label": "Snakebank", "x": 0.014867485455720749, "y": -0.20206489675516223, "reward": 60, "inEdge": [2], "outEdge": [4]}, "4": {"id": 4, "label": "Strongcreak", "x": 0.10213316095669037, "y": -0.03687315634218289, "reward": 60, "inEdge": [7, 3], "outEdge": [8]}, "5": {"id": 5, "label": "Grimerock", "x": 0.27407886231415646, "y": -0.02064896755162242, "reward": 400, "inEdge": [8], "outEdge": []}, "6": {"id": 6, "label": "Silentcanyon", "x": 0.24628312863606983, "y": -0.18436578171091444, "reward": 100, "inEdge": [8], "outEdge": []}, "7": {"id": 7, "label": "Sandy Banks", "x": 0.011635423400129283, "y": 0.26548672566371684, "reward": 30, "inEdge": [1, 2], "outEdge": [4, 10]}, "8": {"id": 8, "label": "Courtdune", "x": 0.1997414350355527, "y": -0.0471976401179941, "reward": 30, "inEdge": [4], "outEdge": [9, 5, 6]}, "9": {"id": 9, "label": "Talonscar", "x": 0.19327731092436976, "y": 0.17994100294985252, "reward": 400, "inEdge": [10, 8], "outEdge": []}, "10": {"id": 10, "label": "Clearpoint", "x": 0.15061409179056237, "y": 0.3112094395280236, "reward": 60, "inEdge": [7], "outEdge": [9]}}, "start_nodes": [0], "end_nodes": [9, 6, 5], "clicks": [6, 4], "cost_total": 315, "cost_path": 295, "cost_expected": 292.5, "path": [0, 2, 3, 4, 8, 6], "trial_type": "roadtrip-plugin", "trial_index": 29, "time_elapsed": 1426829, "internal_node_id": "0.0-3.0-5.0-3.0", "PID": 4, "trial": 4, "condition": "control", "pa": 0.6666666666666666}, {"nodes": {"0": {"id": 0, "label": "Blindridge", "x": -0.3341952165481577, "y": 0.1976401179941003, "reward": 15, "inEdge": [], "outEdge": [1, 2]}, "1": {"id": 1, "label": "Lordssnag", "x": -0.16289592760180996, "y": 0.19321533923303835, "reward": 45, "inEdge": [0], "outEdge": [3, 4]}, "2": {"id": 2, "label": "Venombutte", "x": -0.23206205559146736, "y": -0.08112094395280237, "reward": 60, "inEdge": [0], "outEdge": [3]}, "3": {"id": 3, "label": "Narrowville", "x": -0.01098901098901099, "y": -0.17699115044247787, "reward": 45, "inEdge": [1, 2], "outEdge": [6, 5]}, "4": {"id": 4, "label": "Leadtrail", "x": 0.028442146089204912, "y": 0.23008849557522124, "reward": 30, "inEdge": [1], "outEdge": [10, 8]}, "5": {"id": 5, "label": "Swifttusk", "x": 0.17647058823529413, "y": -0.24336283185840707, "reward": 15, "inEdge": [3], "outEdge": [7]}, "6": {"id": 6, "label": "Desertburg", "x": 0.24499030381383322, "y": 0.011799410029498525, "reward": 60, "inEdge": [3, 8], "outEdge": [9, 10, 7]}, "7": {"id": 7, "label": "Glumworth", "x": 0.3477698771816419, "y": -0.1415929203539823, "reward": 300, "inEdge": [5, 6], "outEdge": []}, "8": {"id": 8, "label": "Thornhollow", "x": 0.09566903684550743, "y": 0.05604719764011799, "reward": 45, "inEdge": [4], "outEdge": [6]}, "9": {"id": 9, "label": "Tuckerdune", "x": 0.3283775048480931, "y": 0.11209439528023599, "reward": 300, "inEdge": [6, 10], "outEdge": []}, "10": {"id": 10, "label": "Littlecanyon", "x": 0.2727860374919198, "y": 0.27876106194690264, "reward": 60, "inEdge": [4, 6], "outEdge": [9]}}, "start_nodes": [0], "end_nodes": [9, 7], "clicks": [9, 7], "cost_total": 440, "cost_path": 420, "cost_expected": 432.5, "path": [0, 2, 3, 5, 7], "trial_type": "roadtrip-plugin", "trial_index": 30, "time_elapsed": 1512837, "internal_node_id": "0.0-3.0-5.0-4.0", "PID": 4, "trial": 5, "condition": "control", "pa": 1.0}, {"nodes": {"0": {"id": 0, "label": "Goldcreak", "x": -0.27020038784744665, "y": 0.08259587020648967, "reward": 45, "inEdge": [], "outEdge": [2, 1]}, "1": {"id": 1, "label": "Crazerock", "x": 0.0019392372333548805, "y": 0.18141592920353983, "reward": 45, "inEdge": [0], "outEdge": [3, 4]}, "2": {"id": 2, "label": "Tanscar", "x": -0.06464124111182935, "y": -0.10766961651917405, "reward": 15, "inEdge": [0], "outEdge": [3, 8]}, "3": {"id": 3, "label": "Breakroost", "x": 0.12023270846800259, "y": 0.02064896755162242, "reward": 45, "inEdge": [2, 1], "outEdge": [7, 5]}, "4": {"id": 4, "label": "Lightbank", "x": 0.21266968325791855, "y": 0.1592920353982301, "reward": 45, "inEdge": [1], "outEdge": [10, 6]}, "5": {"id": 5, "label": "Slowalley", "x": 0.20749838396897222, "y": -0.10766961651917405, "reward": 60, "inEdge": [8, 3], "outEdge": [9]}, "6": {"id": 6, "label": "Wolfmesa", "x": 0.3400129282482224, "y": 0.09144542772861357, "reward": 400, "inEdge": [4], "outEdge": []}, "7": {"id": 7, "label": "Desertglen", "x": 0.31997414350355524, "y": -0.004424778761061947, "reward": 100, "inEdge": [3], "outEdge": []}, "8": {"id": 8, "label": "Crookgate", "x": 0.07369101486748546, "y": -0.2079646017699115, "reward": 60, "inEdge": [2], "outEdge": [5]}, "9": {"id": 9, "label": "Blankhallow", "x": 0.3044602456367162, "y": -0.27728613569321536, "reward": 400, "inEdge": [5], "outEdge": []}, "10": {"id": 10, "label": "Tuckersnag", "x": 0.28312863606981253, "y": 0.21091445427728614, "reward": 300, "inEdge": [4], "outEdge": []}}, "start_nodes": [0], "end_nodes": [10, 7, 9, 6], "clicks": [7], "cost_total": 200, "cost_path": 190, "cost_expected": 185, "path": [0, 1, 3, 7], "trial_type": "roadtrip-plugin", "trial_index": 31, "time_elapsed": 1538347, "internal_node_id": "0.0-3.0-5.0-5.0", "PID": 4, "trial": 6, "condition": "control", "pa": 1.0}, {"nodes": {"0": {"id": 0, "label": "Quickbanks", "x": -0.2275371687136393, "y": -0.09587020648967552, "reward": 15, "inEdge": [], "outEdge": [1, 2, 8]}, "1": {"id": 1, "label": "Copper Crag", "x": -0.08338720103425985, "y": 0.17699115044247787, "reward": 60, "inEdge": [0], "outEdge": [4]}, "2": {"id": 2, "label": "Scorncreak", "x": 0.012281835811247576, "y": -0.26253687315634217, "reward": 15, "inEdge": [0], "outEdge": [5, 9, 3]}, "3": {"id": 3, "label": "Thinpass", "x": 0.13574660633484162, "y": -0.02654867256637168, "reward": 45, "inEdge": [2, 8], "outEdge": [10, 6]}, "4": {"id": 4, "label": "Defiant Rock", "x": 0.12152553329023917, "y": 0.1415929203539823, "reward": 30, "inEdge": [1], "outEdge": [10]}, "5": {"id": 5, "label": "Bareriver", "x": 0.21331609566903684, "y": -0.14749262536873156, "reward": 30, "inEdge": [2], "outEdge": [6]}, "6": {"id": 6, "label": "Dodgelake", "x": 0.34841628959276016, "y": -0.13716814159292035, "reward": 200, "inEdge": [5, 3], "outEdge": []}, "7": {"id": 7, "label": "Dullgulch", "x": 0.2979961215255333, "y": -0.3230088495575221, "reward": 400, "inEdge": [9], "outEdge": []}, "8": {"id": 8, "label": "Paleflats", "x": -0.011635423400129283, "y": 0.017699115044247787, "reward": 30, "inEdge": [0], "outEdge": [3]}, "9": {"id": 9, "label": "Idlestream", "x": 0.23076923076923078, "y": -0.23008849557522124, "reward": 60, "inEdge": [2], "outEdge": [7]}, "10": {"id": 10, "label": "Drylanding", "x": 0.35423400129282484, "y": 0.032448377581120944, "reward": 200, "inEdge": [4, 3], "outEdge": []}}, "start_nodes": [0], "end_nodes": [6, 10, 7], "clicks": [10, 6, 7], "cost_total": 320, "cost_path": 290, "cost_expected": 305, "path": [0, 1, 4, 10], "trial_type": "roadtrip-plugin", "trial_index": 32, "time_elapsed": 1588385, "internal_node_id": "0.0-3.0-5.0-6.0", "PID": 4, "trial": 7, "condition": "control", "pa": 1.0}, {"nodes": {"0": {"id": 0, "label": "Bigstand", "x": -0.3387201034259858, "y": 0.007374631268436578, "reward": 45, "inEdge": [], "outEdge": [2, 1]}, "1": {"id": 1, "label": "Brokenroost", "x": -0.2592113768584357, "y": 0.17994100294985252, "reward": 45, "inEdge": [0], "outEdge": [3]}, "2": {"id": 2, "label": "Grand Mesa", "x": -0.25080801551389786, "y": -0.09587020648967552, "reward": 30, "inEdge": [0], "outEdge": [3]}, "3": {"id": 3, "label": "Wildbank", "x": -0.16289592760180996, "y": 0.08112094395280237, "reward": 15, "inEdge": [1, 2], "outEdge": [5, 4]}, "4": {"id": 4, "label": "Barrendowns", "x": 0.056884292178409825, "y": -0.016224188790560472, "reward": 45, "inEdge": [3], "outEdge": [9, 6]}, "5": {"id": 5, "label": "Gravelburg", "x": 0.04395604395604396, "y": -0.27876106194690264, "reward": 30, "inEdge": [3], "outEdge": [9]}, "6": {"id": 6, "label": "Flatcity", "x": 0.1777634130575307, "y": 0.08702064896755163, "reward": 30, "inEdge": [4], "outEdge": [10]}, "7": {"id": 7, "label": "Goldenhowl", "x": 0.31932773109243695, "y": 0.16519174041297935, "reward": 200, "inEdge": [9], "outEdge": []}, "8": {"id": 8, "label": "Tightriver", "x": 0.3380736910148675, "y": -0.11209439528023599, "reward": 15, "inEdge": [9], "outEdge": []}, "9": {"id": 9, "label": "Paleville", "x": 0.2359405300581771, "y": -0.12536873156342182, "reward": 60, "inEdge": [4, 5], "outEdge": [7, 8]}, "10": {"id": 10, "label": "Dusty Summit", "x": 0.24692954104718812, "y": 0.2949852507374631, "reward": 400, "inEdge": [6], "outEdge": []}}, "start_nodes": [0], "end_nodes": [7, 10], "clicks": [10, 7, 8], "cost_total": 365, "cost_path": 335, "cost_expected": 380, "path": [0, 2, 3, 5, 9, 7], "trial_type": "roadtrip-plugin", "trial_index": 33, "time_elapsed": 1722275, "internal_node_id": "0.0-3.0-5.0-7.0", "PID": 4, "trial": 8, "condition": "control", "pa": 1.0}, {"nodes": {"0": {"id": 0, "label": "Wolfville", "x": -0.3049894588896697, "y": -0.24631268436578171, "reward": 60, "inEdge": [], "outEdge": [2]}, "1": {"id": 1, "label": "Rustbluff", "x": -0.14617006324666199, "y": 0.06342182890855458, "reward": 45, "inEdge": [2], "outEdge": [6, 8]}, "2": {"id": 2, "label": "Glumgorge", "x": -0.286718200983837, "y": -0.004424778761061947, "reward": 30, "inEdge": [0], "outEdge": [3, 1]}, "3": {"id": 3, "label": "Darkstone", "x": -0.05130007027406887, "y": -0.24631268436578171, "reward": 60, "inEdge": [2], "outEdge": [5, 8]}, "4": {"id": 4, "label": "Snakedune", "x": 0.24736472241742796, "y": 0.1696165191740413, "reward": 100, "inEdge": [6, 9], "outEdge": []}, "5": {"id": 5, "label": "Stiffbrook", "x": 0.1602248770203795, "y": -0.18141592920353983, "reward": 15, "inEdge": [3], "outEdge": [7, 10]}, "6": {"id": 6, "label": "Blindtooth", "x": 0.06394940267041462, "y": 0.06489675516224189, "reward": 45, "inEdge": [1], "outEdge": [4]}, "7": {"id": 7, "label": "Ragbanks", "x": 0.3239634574841883, "y": -0.14896755162241887, "reward": 300, "inEdge": [5, 9], "outEdge": []}, "8": {"id": 8, "label": "Steelcanyon", "x": 0.02881236823612087, "y": -0.08702064896755163, "reward": 60, "inEdge": [1, 3], "outEdge": [9]}, "9": {"id": 9, "label": "Swiftchapel", "x": 0.19395643007730148, "y": -0.016224188790560472, "reward": 15, "inEdge": [8], "outEdge": [7, 4]}, "10": {"id": 10, "label": "Dreadriver", "x": 0.2326071679550246, "y": -0.3303834808259587, "reward": 400, "inEdge": [5], "outEdge": []}}, "start_nodes": [0], "end_nodes": [7, 10, 4], "clicks": [2, 4, 6, 1], "cost_total": 260, "cost_path": 220, "cost_expected": 260, "path": [0, 2, 1, 6, 4], "trial_type": "roadtrip-plugin", "trial_index": 26, "time_elapsed": 658616, "internal_node_id": "0.0-3.0-5.0-0.0", "PID": 5, "trial": 1, "condition": "control", "pa": 0.3333333333333333}, {"nodes": {"0": {"id": 0, "label": "Blindridge", "x": -0.3341952165481577, "y": 0.1976401179941003, "reward": 15, "inEdge": [], "outEdge": [1, 2]}, "1": {"id": 1, "label": "Lordssnag", "x": -0.16289592760180996, "y": 0.19321533923303835, "reward": 60, "inEdge": [0], "outEdge": [3, 4]}, "2": {"id": 2, "label": "Venombutte", "x": -0.23206205559146736, "y": -0.08112094395280237, "reward": 15, "inEdge": [0], "outEdge": [3]}, "3": {"id": 3, "label": "Narrowville", "x": -0.01098901098901099, "y": -0.17699115044247787, "reward": 30, "inEdge": [1, 2], "outEdge": [6, 5]}, "4": {"id": 4, "label": "Leadtrail", "x": 0.028442146089204912, "y": 0.23008849557522124, "reward": 60, "inEdge": [1], "outEdge": [10, 8]}, "5": {"id": 5, "label": "Swifttusk", "x": 0.17647058823529413, "y": -0.24336283185840707, "reward": 30, "inEdge": [3], "outEdge": [7]}, "6": {"id": 6, "label": "Desertburg", "x": 0.24499030381383322, "y": 0.011799410029498525, "reward": 60, "inEdge": [3, 8], "outEdge": [9, 10, 7]}, "7": {"id": 7, "label": "Glumworth", "x": 0.3477698771816419, "y": -0.1415929203539823, "reward": 100, "inEdge": [5, 6], "outEdge": []}, "8": {"id": 8, "label": "Thornhollow", "x": 0.09566903684550743, "y": 0.05604719764011799, "reward": 15, "inEdge": [4], "outEdge": [6]}, "9": {"id": 9, "label": "Tuckerdune", "x": 0.3283775048480931, "y": 0.11209439528023599, "reward": 100, "inEdge": [6, 10], "outEdge": []}, "10": {"id": 10, "label": "Littlecanyon", "x": 0.2727860374919198, "y": 0.27876106194690264, "reward": 15, "inEdge": [4, 6], "outEdge": [9]}}, "start_nodes": [0], "end_nodes": [9, 7], "clicks": [9], "cost_total": 245, "cost_path": 235, "cost_expected": 222.5, "path": [0, 1, 4, 10, 9], "trial_type": "roadtrip-plugin", "trial_index": 27, "time_elapsed": 679521, "internal_node_id": "0.0-3.0-5.0-1.0", "PID": 5, "trial": 2, "condition": "control", "pa": 1.0}, {"nodes": {"0": {"id": 0, "label": "Bigstand", "x": -0.3387201034259858, "y": 0.007374631268436578, "reward": 30, "inEdge": [], "outEdge": [2, 1]}, "1": {"id": 1, "label": "Brokenroost", "x": -0.2592113768584357, "y": 0.17994100294985252, "reward": 30, "inEdge": [0], "outEdge": [3]}, "2": {"id": 2, "label": "Grand Mesa", "x": -0.25080801551389786, "y": -0.09587020648967552, "reward": 15, "inEdge": [0], "outEdge": [3]}, "3": {"id": 3, "label": "Wildbank", "x": -0.16289592760180996, "y": 0.08112094395280237, "reward": 60, "inEdge": [1, 2], "outEdge": [5, 4]}, "4": {"id": 4, "label": "Barrendowns", "x": 0.056884292178409825, "y": -0.016224188790560472, "reward": 30, "inEdge": [3], "outEdge": [9, 6]}, "5": {"id": 5, "label": "Gravelburg", "x": 0.04395604395604396, "y": -0.27876106194690264, "reward": 15, "inEdge": [3], "outEdge": [9]}, "6": {"id": 6, "label": "Flatcity", "x": 0.1777634130575307, "y": 0.08702064896755163, "reward": 30, "inEdge": [4], "outEdge": [10]}, "7": {"id": 7, "label": "Goldenhowl", "x": 0.31932773109243695, "y": 0.16519174041297935, "reward": 300, "inEdge": [9], "outEdge": []}, "8": {"id": 8, "label": "Tightriver", "x": 0.3380736910148675, "y": -0.11209439528023599, "reward": 30, "inEdge": [9], "outEdge": []}, "9": {"id": 9, "label": "Paleville", "x": 0.2359405300581771, "y": -0.12536873156342182, "reward": 60, "inEdge": [4, 5], "outEdge": [7, 8]}, "10": {"id": 10, "label": "Dusty Summit", "x": 0.24692954104718812, "y": 0.2949852507374631, "reward": 300, "inEdge": [6], "outEdge": []}}, "start_nodes": [0], "end_nodes": [7, 10], "clicks": [1], "cost_total": 460, "cost_path": 450, "cost_expected": 402.5, "path": [0, 1, 3, 4, 6, 10], "trial_type": "roadtrip-plugin", "trial_index": 28, "time_elapsed": 715548, "internal_node_id": "0.0-3.0-5.0-2.0", "PID": 5, "trial": 3, "condition": "control", "pa": 0.0}, {"nodes": {"0": {"id": 0, "label": "Goldcreak", "x": -0.27020038784744665, "y": 0.08259587020648967, "reward": 30, "inEdge": [], "outEdge": [2, 1]}, "1": {"id": 1, "label": "Crazerock", "x": 0.0019392372333548805, "y": 0.18141592920353983, "reward": 45, "inEdge": [0], "outEdge": [3, 4]}, "2": {"id": 2, "label": "Tanscar", "x": -0.06464124111182935, "y": -0.10766961651917405, "reward": 30, "inEdge": [0], "outEdge": [3, 8]}, "3": {"id": 3, "label": "Breakroost", "x": 0.12023270846800259, "y": 0.02064896755162242, "reward": 30, "inEdge": [2, 1], "outEdge": [7, 5]}, "4": {"id": 4, "label": "Lightbank", "x": 0.21266968325791855, "y": 0.1592920353982301, "reward": 45, "inEdge": [1], "outEdge": [10, 6]}, "5": {"id": 5, "label": "Slowalley", "x": 0.20749838396897222, "y": -0.10766961651917405, "reward": 45, "inEdge": [8, 3], "outEdge": [9]}, "6": {"id": 6, "label": "Wolfmesa", "x": 0.3400129282482224, "y": 0.09144542772861357, "reward": 200, "inEdge": [4], "outEdge": []}, "7": {"id": 7, "label": "Desertglen", "x": 0.31997414350355524, "y": -0.004424778761061947, "reward": 400, "inEdge": [3], "outEdge": []}, "8": {"id": 8, "label": "Crookgate", "x": 0.07369101486748546, "y": -0.2079646017699115, "reward": 15, "inEdge": [2], "outEdge": [5]}, "9": {"id": 9, "label": "Blankhallow", "x": 0.3044602456367162, "y": -0.27728613569321536, "reward": 300, "inEdge": [5], "outEdge": []}, "10": {"id": 10, "label": "Tuckersnag", "x": 0.28312863606981253, "y": 0.21091445427728614, "reward": 100, "inEdge": [4], "outEdge": []}}, "start_nodes": [0], "end_nodes": [10, 7, 9, 6], "clicks": [6, 7, 10], "cost_total": 220, "cost_path": 190, "cost_expected": 205, "path": [0, 1, 4, 10], "trial_type": "roadtrip-plugin", "trial_index": 29, "time_elapsed": 746045, "internal_node_id": "0.0-3.0-5.0-3.0", "PID": 5, "trial": 4, "condition": "control", "pa": 1.0}, {"nodes": {"0": {"id": 0, "label": "Meekcreak", "x": -0.3160956690368455, "y": 0.24336283185840707, "reward": 45, "inEdge": [], "outEdge": [1, 2, 7]}, "1": {"id": 1, "label": "Onyxtrails", "x": -0.04201680672268908, "y": 0.1902654867256637, "reward": 45, "inEdge": [0], "outEdge": [10, 5]}, "2": {"id": 2, "label": "Richport", "x": -0.28829993535875886, "y": -0.0752212389380531, "reward": 30, "inEdge": [0], "outEdge": [3, 8]}, "3": {"id": 3, "label": "Wolfdune", "x": 0.03878474466709761, "y": -0.09734513274336283, "reward": 15, "inEdge": [2, 8], "outEdge": [4]}, "4": {"id": 4, "label": "Longwater", "x": 0.19198448610213317, "y": -0.1430678466076696, "reward": 300, "inEdge": [3, 5], "outEdge": []}, "5": {"id": 5, "label": "Bittersprings", "x": 0.13380736910148675, "y": 0.007374631268436578, "reward": 30, "inEdge": [7, 1], "outEdge": [4, 6]}, "6": {"id": 6, "label": "Thornford", "x": 0.32191338073691017, "y": 0.0029498525073746312, "reward": 400, "inEdge": [5], "outEdge": []}, "7": {"id": 7, "label": "Shady Hallow", "x": -0.07433742727860375, "y": 0.02064896755162242, "reward": 30, "inEdge": [0], "outEdge": [5]}, "8": {"id": 8, "label": "Plainbellow", "x": -0.007110536522301228, "y": -0.24336283185840707, "reward": 30, "inEdge": [2], "outEdge": [3]}, "9": {"id": 9, "label": "Copper Chapel", "x": 0.29282482223658696, "y": 0.13421828908554573, "reward": 200, "inEdge": [10], "outEdge": []}, "10": {"id": 10, "label": "Ruby Port", "x": 0.2178409825468649, "y": 0.23893805309734514, "reward": 15, "inEdge": [1], "outEdge": [9]}}, "start_nodes": [0], "end_nodes": [9, 4, 6], "clicks": [4, 9, 7, 1], "cost_total": 500, "cost_path": 460, "cost_expected": 357.5, "path": [0, 7, 5, 6], "trial_type": "roadtrip-plugin", "trial_index": 30, "time_elapsed": 790279, "internal_node_id": "0.0-3.0-5.0-4.0", "PID": 5, "trial": 5, "condition": "control", "pa": 0.6666666666666666}, {"nodes": {"0": {"id": 0, "label": "Scornvale", "x": -0.36199095022624433, "y": 0.014749262536873156, "reward": 45, "inEdge": [], "outEdge": [2, 3]}, "1": {"id": 1, "label": "Silentedge", "x": -0.13186813186813187, "y": 0.20648967551622419, "reward": 30, "inEdge": [2], "outEdge": [6, 5]}, "2": {"id": 2, "label": "Wolftrails", "x": -0.24434389140271492, "y": 0.25958702064896755, "reward": 15, "inEdge": [0], "outEdge": [1]}, "3": {"id": 3, "label": "Smoothmountain", "x": -0.2094376212023271, "y": -0.0752212389380531, "reward": 30, "inEdge": [0], "outEdge": [9, 5]}, "4": {"id": 4, "label": "Serpentcrag", "x": 0.3076923076923077, "y": 0.15486725663716813, "reward": 300, "inEdge": [6], "outEdge": []}, "5": {"id": 5, "label": "Purestone", "x": -0.09631544925662573, "y": -0.008849557522123894, "reward": 30, "inEdge": [3, 1], "outEdge": [6]}, "6": {"id": 6, "label": "Thornburg", "x": 0.15966386554621848, "y": 0.058997050147492625, "reward": 30, "inEdge": [1, 5, 9], "outEdge": [4, 7]}, "7": {"id": 7, "label": "Wildbend", "x": 0.30187459599224303, "y": -0.09144542772861357, "reward": 200, "inEdge": [6, 10, 8], "outEdge": []}, "8": {"id": 8, "label": "Silverstead", "x": 0.16095669036845509, "y": -0.084070796460177, "reward": 30, "inEdge": [9], "outEdge": [7]}, "9": {"id": 9, "label": "Greedpass", "x": 0.0019392372333548805, "y": -0.252212389380531, "reward": 45, "inEdge": [3], "outEdge": [6, 10, 8]}, "10": {"id": 10, "label": "Sinvale", "x": 0.20038784744667099, "y": -0.3112094395280236, "reward": 60, "inEdge": [9], "outEdge": [7]}}, "start_nodes": [0], "end_nodes": [7, 4], "clicks": [4, 7], "cost_total": 325, "cost_path": 305, "cost_expected": 332.5, "path": [0, 3, 9, 8, 7], "trial_type": "roadtrip-plugin", "trial_index": 31, "time_elapsed": 807871, "internal_node_id": "0.0-3.0-5.0-5.0", "PID": 5, "trial": 6, "condition": "control", "pa": 1.0}, {"nodes": {"0": {"id": 0, "label": "Quickbanks", "x": -0.2275371687136393, "y": -0.09587020648967552, "reward": 60, "inEdge": [], "outEdge": [1, 2, 8]}, "1": {"id": 1, "label": "Copper Crag", "x": -0.08338720103425985, "y": 0.17699115044247787, "reward": 45, "inEdge": [0], "outEdge": [4]}, "2": {"id": 2, "label": "Scorncreak", "x": 0.012281835811247576, "y": -0.26253687315634217, "reward": 30, "inEdge": [0], "outEdge": [5, 9, 3]}, "3": {"id": 3, "label": "Thinpass", "x": 0.13574660633484162, "y": -0.02654867256637168, "reward": 30, "inEdge": [2, 8], "outEdge": [10, 6]}, "4": {"id": 4, "label": "Defiant Rock", "x": 0.12152553329023917, "y": 0.1415929203539823, "reward": 15, "inEdge": [1], "outEdge": [10]}, "5": {"id": 5, "label": "Bareriver", "x": 0.21331609566903684, "y": -0.14749262536873156, "reward": 45, "inEdge": [2], "outEdge": [6]}, "6": {"id": 6, "label": "Dodgelake", "x": 0.34841628959276016, "y": -0.13716814159292035, "reward": 300, "inEdge": [5, 3], "outEdge": []}, "7": {"id": 7, "label": "Dullgulch", "x": 0.2979961215255333, "y": -0.3230088495575221, "reward": 400, "inEdge": [9], "outEdge": []}, "8": {"id": 8, "label": "Paleflats", "x": -0.011635423400129283, "y": 0.017699115044247787, "reward": 30, "inEdge": [0], "outEdge": [3]}, "9": {"id": 9, "label": "Idlestream", "x": 0.23076923076923078, "y": -0.23008849557522124, "reward": 30, "inEdge": [2], "outEdge": [7]}, "10": {"id": 10, "label": "Drylanding", "x": 0.35423400129282484, "y": 0.032448377581120944, "reward": 100, "inEdge": [4, 3], "outEdge": []}}, "start_nodes": [0], "end_nodes": [6, 10, 7], "clicks": [10, 8], "cost_total": 180, "cost_path": 160, "cost_expected": 187.5, "path": [0, 8, 3, 10], "trial_type": "roadtrip-plugin", "trial_index": 32, "time_elapsed": 826299, "internal_node_id": "0.0-3.0-5.0-6.0", "PID": 5, "trial": 7, "condition": "control", "pa": 0.6666666666666666}, {"nodes": {"0": {"id": 0, "label": "Whitecrag", "x": -0.31092436974789917, "y": -0.17256637168141592, "reward": 30, "inEdge": [], "outEdge": [1, 2]}, "1": {"id": 1, "label": "Numbbanks", "x": -0.15126050420168066, "y": 0.168141592920354, "reward": 30, "inEdge": [0], "outEdge": [7]}, "2": {"id": 2, "label": "Old Hill", "x": -0.09243697478991597, "y": 0.03687315634218289, "reward": 30, "inEdge": [0], "outEdge": [7, 3]}, "3": {"id": 3, "label": "Snakebank", "x": 0.014867485455720749, "y": -0.20206489675516223, "reward": 30, "inEdge": [2], "outEdge": [4]}, "4": {"id": 4, "label": "Strongcreak", "x": 0.10213316095669037, "y": -0.03687315634218289, "reward": 60, "inEdge": [7, 3], "outEdge": [8]}, "5": {"id": 5, "label": "Grimerock", "x": 0.27407886231415646, "y": -0.02064896755162242, "reward": 300, "inEdge": [8], "outEdge": []}, "6": {"id": 6, "label": "Silentcanyon", "x": 0.24628312863606983, "y": -0.18436578171091444, "reward": 400, "inEdge": [8], "outEdge": []}, "7": {"id": 7, "label": "Sandy Banks", "x": 0.011635423400129283, "y": 0.26548672566371684, "reward": 30, "inEdge": [1, 2], "outEdge": [4, 10]}, "8": {"id": 8, "label": "Courtdune", "x": 0.1997414350355527, "y": -0.0471976401179941, "reward": 45, "inEdge": [4], "outEdge": [9, 5, 6]}, "9": {"id": 9, "label": "Talonscar", "x": 0.19327731092436976, "y": 0.17994100294985252, "reward": 400, "inEdge": [10, 8], "outEdge": []}, "10": {"id": 10, "label": "Clearpoint", "x": 0.15061409179056237, "y": 0.3112094395280236, "reward": 45, "inEdge": [7], "outEdge": [9]}}, "start_nodes": [0], "end_nodes": [9, 6, 5], "clicks": [9, 5, 6], "cost_total": 495, "cost_path": 465, "cost_expected": 480, "path": [0, 2, 3, 4, 8, 5], "trial_type": "roadtrip-plugin", "trial_index": 33, "time_elapsed": 865455, "internal_node_id": "0.0-3.0-5.0-7.0", "PID": 5, "trial": 8, "condition": "control", "pa": 1.0}, {"nodes": {"0": {"id": 0, "label": "Quickbanks", "x": -0.2275371687136393, "y": -0.09587020648967552, "reward": 45, "inEdge": [], "outEdge": [1, 2, 8]}, "1": {"id": 1, "label": "Copper Crag", "x": -0.08338720103425985, "y": 0.17699115044247787, "reward": 45, "inEdge": [0], "outEdge": [4]}, "2": {"id": 2, "label": "Scorncreak", "x": 0.012281835811247576, "y": -0.26253687315634217, "reward": 30, "inEdge": [0], "outEdge": [5, 9, 3]}, "3": {"id": 3, "label": "Thinpass", "x": 0.13574660633484162, "y": -0.02654867256637168, "reward": 15, "inEdge": [2, 8], "outEdge": [10, 6]}, "4": {"id": 4, "label": "Defiant Rock", "x": 0.12152553329023917, "y": 0.1415929203539823, "reward": 15, "inEdge": [1], "outEdge": [10]}, "5": {"id": 5, "label": "Bareriver", "x": 0.21331609566903684, "y": -0.14749262536873156, "reward": 30, "inEdge": [2], "outEdge": [6]}, "6": {"id": 6, "label": "Dodgelake", "x": 0.34841628959276016, "y": -0.13716814159292035, "reward": 400, "inEdge": [5, 3], "outEdge": []}, "7": {"id": 7, "label": "Dullgulch", "x": 0.2979961215255333, "y": -0.3230088495575221, "reward": 200, "inEdge": [9], "outEdge": []}, "8": {"id": 8, "label": "Paleflats", "x": -0.011635423400129283, "y": 0.017699115044247787, "reward": 15, "inEdge": [0], "outEdge": [3]}, "9": {"id": 9, "label": "Idlestream", "x": 0.23076923076923078, "y": -0.23008849557522124, "reward": 45, "inEdge": [2], "outEdge": [7]}, "10": {"id": 10, "label": "Drylanding", "x": 0.35423400129282484, "y": 0.032448377581120944, "reward": 300, "inEdge": [4, 3], "outEdge": []}}, "start_nodes": [0], "end_nodes": [6, 10, 7], "clicks": [8, 10, 6, 7], "cost_total": 315, "cost_path": 275, "cost_expected": 315, "path": [0, 2, 9, 7], "trial_type": "roadtrip-plugin", "trial_index": 22, "time_elapsed": 599720, "internal_node_id": "0.0-3.0-5.0-0.0", "PID": 6, "trial": 1, "condition": "control", "pa": 0.6666666666666666}, {"nodes": {"0": {"id": 0, "label": "Wolfville", "x": -0.3049894588896697, "y": -0.24631268436578171, "reward": 45, "inEdge": [], "outEdge": [2]}, "1": {"id": 1, "label": "Rustbluff", "x": -0.14617006324666199, "y": 0.06342182890855458, "reward": 30, "inEdge": [2], "outEdge": [6, 8]}, "2": {"id": 2, "label": "Glumgorge", "x": -0.286718200983837, "y": -0.004424778761061947, "reward": 45, "inEdge": [0], "outEdge": [3, 1]}, "3": {"id": 3, "label": "Darkstone", "x": -0.05130007027406887, "y": -0.24631268436578171, "reward": 15, "inEdge": [2], "outEdge": [5, 8]}, "4": {"id": 4, "label": "Snakedune", "x": 0.24736472241742796, "y": 0.1696165191740413, "reward": 400, "inEdge": [6, 9], "outEdge": []}, "5": {"id": 5, "label": "Stiffbrook", "x": 0.1602248770203795, "y": -0.18141592920353983, "reward": 60, "inEdge": [3], "outEdge": [7, 10]}, "6": {"id": 6, "label": "Blindtooth", "x": 0.06394940267041462, "y": 0.06489675516224189, "reward": 15, "inEdge": [1], "outEdge": [4]}, "7": {"id": 7, "label": "Ragbanks", "x": 0.3239634574841883, "y": -0.14896755162241887, "reward": 200, "inEdge": [5, 9], "outEdge": []}, "8": {"id": 8, "label": "Steelcanyon", "x": 0.02881236823612087, "y": -0.08702064896755163, "reward": 30, "inEdge": [1, 3], "outEdge": [9]}, "9": {"id": 9, "label": "Swiftchapel", "x": 0.19395643007730148, "y": -0.016224188790560472, "reward": 30, "inEdge": [8], "outEdge": [7, 4]}, "10": {"id": 10, "label": "Dreadriver", "x": 0.2326071679550246, "y": -0.3303834808259587, "reward": 100, "inEdge": [5], "outEdge": []}}, "start_nodes": [0], "end_nodes": [7, 10, 4], "clicks": [10], "cost_total": 230, "cost_path": 220, "cost_expected": 222.5, "path": [0, 2, 3, 5, 10], "trial_type": "roadtrip-plugin", "trial_index": 23, "time_elapsed": 621479, "internal_node_id": "0.0-3.0-5.0-1.0", "PID": 6, "trial": 2, "condition": "control", "pa": 1.0}, {"nodes": {"0": {"id": 0, "label": "Goldcreak", "x": -0.27020038784744665, "y": 0.08259587020648967, "reward": 45, "inEdge": [], "outEdge": [2, 1]}, "1": {"id": 1, "label": "Crazerock", "x": 0.0019392372333548805, "y": 0.18141592920353983, "reward": 45, "inEdge": [0], "outEdge": [3, 4]}, "2": {"id": 2, "label": "Tanscar", "x": -0.06464124111182935, "y": -0.10766961651917405, "reward": 45, "inEdge": [0], "outEdge": [3, 8]}, "3": {"id": 3, "label": "Breakroost", "x": 0.12023270846800259, "y": 0.02064896755162242, "reward": 60, "inEdge": [2, 1], "outEdge": [7, 5]}, "4": {"id": 4, "label": "Lightbank", "x": 0.21266968325791855, "y": 0.1592920353982301, "reward": 45, "inEdge": [1], "outEdge": [10, 6]}, "5": {"id": 5, "label": "Slowalley", "x": 0.20749838396897222, "y": -0.10766961651917405, "reward": 60, "inEdge": [8, 3], "outEdge": [9]}, "6": {"id": 6, "label": "Wolfmesa", "x": 0.3400129282482224, "y": 0.09144542772861357, "reward": 100, "inEdge": [4], "outEdge": []}, "7": {"id": 7, "label": "Desertglen", "x": 0.31997414350355524, "y": -0.004424778761061947, "reward": 300, "inEdge": [3], "outEdge": []}, "8": {"id": 8, "label": "Crookgate", "x": 0.07369101486748546, "y": -0.2079646017699115, "reward": 45, "inEdge": [2], "outEdge": [5]}, "9": {"id": 9, "label": "Blankhallow", "x": 0.3044602456367162, "y": -0.27728613569321536, "reward": 400, "inEdge": [5], "outEdge": []}, "10": {"id": 10, "label": "Tuckersnag", "x": 0.28312863606981253, "y": 0.21091445427728614, "reward": 200, "inEdge": [4], "outEdge": []}}, "start_nodes": [0], "end_nodes": [10, 7, 9, 6], "clicks": [9, 7, 6], "cost_total": 220, "cost_path": 190, "cost_expected": 205, "path": [0, 1, 4, 6], "trial_type": "roadtrip-plugin", "trial_index": 24, "time_elapsed": 659343, "internal_node_id": "0.0-3.0-5.0-2.0", "PID": 6, "trial": 3, "condition": "control", "pa": 1.0}, {"nodes": {"0": {"id": 0, "label": "Meekcreak", "x": -0.3160956690368455, "y": 0.24336283185840707, "reward": 45, "inEdge": [], "outEdge": [1, 2, 7]}, "1": {"id": 1, "label": "Onyxtrails", "x": -0.04201680672268908, "y": 0.1902654867256637, "reward": 60, "inEdge": [0], "outEdge": [10, 5]}, "2": {"id": 2, "label": "Richport", "x": -0.28829993535875886, "y": -0.0752212389380531, "reward": 60, "inEdge": [0], "outEdge": [3, 8]}, "3": {"id": 3, "label": "Wolfdune", "x": 0.03878474466709761, "y": -0.09734513274336283, "reward": 45, "inEdge": [2, 8], "outEdge": [4]}, "4": {"id": 4, "label": "Longwater", "x": 0.19198448610213317, "y": -0.1430678466076696, "reward": 400, "inEdge": [3, 5], "outEdge": []}, "5": {"id": 5, "label": "Bittersprings", "x": 0.13380736910148675, "y": 0.007374631268436578, "reward": 45, "inEdge": [7, 1], "outEdge": [4, 6]}, "6": {"id": 6, "label": "Thornford", "x": 0.32191338073691017, "y": 0.0029498525073746312, "reward": 300, "inEdge": [5], "outEdge": []}, "7": {"id": 7, "label": "Shady Hallow", "x": -0.07433742727860375, "y": 0.02064896755162242, "reward": 15, "inEdge": [0], "outEdge": [5]}, "8": {"id": 8, "label": "Plainbellow", "x": -0.007110536522301228, "y": -0.24336283185840707, "reward": 30, "inEdge": [2], "outEdge": [3]}, "9": {"id": 9, "label": "Copper Chapel", "x": 0.29282482223658696, "y": 0.13421828908554573, "reward": 300, "inEdge": [10], "outEdge": []}, "10": {"id": 10, "label": "Ruby Port", "x": 0.2178409825468649, "y": 0.23893805309734514, "reward": 60, "inEdge": [1], "outEdge": [9]}}, "start_nodes": [0], "end_nodes": [9, 4, 6], "clicks": [9, 4, 6], "cost_total": 435, "cost_path": 405, "cost_expected": 405, "path": [0, 1, 5, 6], "trial_type": "roadtrip-plugin", "trial_index": 25, "time_elapsed": 696911, "internal_node_id": "0.0-3.0-5.0-3.0", "PID": 6, "trial": 4, "condition": "control", "pa": 1.0}, {"nodes": {"0": {"id": 0, "label": "Blindridge", "x": -0.3341952165481577, "y": 0.1976401179941003, "reward": 30, "inEdge": [], "outEdge": [1, 2]}, "1": {"id": 1, "label": "Lordssnag", "x": -0.16289592760180996, "y": 0.19321533923303835, "reward": 15, "inEdge": [0], "outEdge": [3, 4]}, "2": {"id": 2, "label": "Venombutte", "x": -0.23206205559146736, "y": -0.08112094395280237, "reward": 30, "inEdge": [0], "outEdge": [3]}, "3": {"id": 3, "label": "Narrowville", "x": -0.01098901098901099, "y": -0.17699115044247787, "reward": 45, "inEdge": [1, 2], "outEdge": [6, 5]}, "4": {"id": 4, "label": "Leadtrail", "x": 0.028442146089204912, "y": 0.23008849557522124, "reward": 60, "inEdge": [1], "outEdge": [10, 8]}, "5": {"id": 5, "label": "Swifttusk", "x": 0.17647058823529413, "y": -0.24336283185840707, "reward": 15, "inEdge": [3], "outEdge": [7]}, "6": {"id": 6, "label": "Desertburg", "x": 0.24499030381383322, "y": 0.011799410029498525, "reward": 60, "inEdge": [3, 8], "outEdge": [9, 10, 7]}, "7": {"id": 7, "label": "Glumworth", "x": 0.3477698771816419, "y": -0.1415929203539823, "reward": 400, "inEdge": [5, 6], "outEdge": []}, "8": {"id": 8, "label": "Thornhollow", "x": 0.09566903684550743, "y": 0.05604719764011799, "reward": 45, "inEdge": [4], "outEdge": [6]}, "9": {"id": 9, "label": "Tuckerdune", "x": 0.3283775048480931, "y": 0.11209439528023599, "reward": 100, "inEdge": [6, 10], "outEdge": []}, "10": {"id": 10, "label": "Littlecanyon", "x": 0.2727860374919198, "y": 0.27876106194690264, "reward": 45, "inEdge": [4, 6], "outEdge": [9]}}, "start_nodes": [0], "end_nodes": [9, 7], "clicks": [9], "cost_total": 230, "cost_path": 220, "cost_expected": 222.5, "path": [0, 1, 4, 10, 9], "trial_type": "roadtrip-plugin", "trial_index": 26, "time_elapsed": 724383, "internal_node_id": "0.0-3.0-5.0-4.0", "PID": 6, "trial": 5, "condition": "control", "pa": 1.0}, {"nodes": {"0": {"id": 0, "label": "Scornvale", "x": -0.36199095022624433, "y": 0.014749262536873156, "reward": 30, "inEdge": [], "outEdge": [2, 3]}, "1": {"id": 1, "label": "Silentedge", "x": -0.13186813186813187, "y": 0.20648967551622419, "reward": 30, "inEdge": [2], "outEdge": [6, 5]}, "2": {"id": 2, "label": "Wolftrails", "x": -0.24434389140271492, "y": 0.25958702064896755, "reward": 15, "inEdge": [0], "outEdge": [1]}, "3": {"id": 3, "label": "Smoothmountain", "x": -0.2094376212023271, "y": -0.0752212389380531, "reward": 45, "inEdge": [0], "outEdge": [9, 5]}, "4": {"id": 4, "label": "Serpentcrag", "x": 0.3076923076923077, "y": 0.15486725663716813, "reward": 100, "inEdge": [6], "outEdge": []}, "5": {"id": 5, "label": "Purestone", "x": -0.09631544925662573, "y": -0.008849557522123894, "reward": 15, "inEdge": [3, 1], "outEdge": [6]}, "6": {"id": 6, "label": "Thornburg", "x": 0.15966386554621848, "y": 0.058997050147492625, "reward": 45, "inEdge": [1, 5, 9], "outEdge": [4, 7]}, "7": {"id": 7, "label": "Wildbend", "x": 0.30187459599224303, "y": -0.09144542772861357, "reward": 300, "inEdge": [6, 10, 8], "outEdge": []}, "8": {"id": 8, "label": "Silverstead", "x": 0.16095669036845509, "y": -0.084070796460177, "reward": 15, "inEdge": [9], "outEdge": [7]}, "9": {"id": 9, "label": "Greedpass", "x": 0.0019392372333548805, "y": -0.252212389380531, "reward": 30, "inEdge": [3], "outEdge": [6, 10, 8]}, "10": {"id": 10, "label": "Sinvale", "x": 0.20038784744667099, "y": -0.3112094395280236, "reward": 15, "inEdge": [9], "outEdge": [7]}}, "start_nodes": [0], "end_nodes": [7, 4], "clicks": [7, 4], "cost_total": 225, "cost_path": 205, "cost_expected": 232.5, "path": [0, 3, 5, 6, 4], "trial_type": "roadtrip-plugin", "trial_index": 27, "time_elapsed": 756631, "internal_node_id": "0.0-3.0-5.0-5.0", "PID": 6, "trial": 6, "condition": "control", "pa": 1.0}, {"nodes": {"0": {"id": 0, "label": "Whitecrag", "x": -0.31092436974789917, "y": -0.17256637168141592, "reward": 45, "inEdge": [], "outEdge": [1, 2]}, "1": {"id": 1, "label": "Numbbanks", "x": -0.15126050420168066, "y": 0.168141592920354, "reward": 15, "inEdge": [0], "outEdge": [7]}, "2": {"id": 2, "label": "Old Hill", "x": -0.09243697478991597, "y": 0.03687315634218289, "reward": 45, "inEdge": [0], "outEdge": [7, 3]}, "3": {"id": 3, "label": "Snakebank", "x": 0.014867485455720749, "y": -0.20206489675516223, "reward": 45, "inEdge": [2], "outEdge": [4]}, "4": {"id": 4, "label": "Strongcreak", "x": 0.10213316095669037, "y": -0.03687315634218289, "reward": 60, "inEdge": [7, 3], "outEdge": [8]}, "5": {"id": 5, "label": "Grimerock", "x": 0.27407886231415646, "y": -0.02064896755162242, "reward": 400, "inEdge": [8], "outEdge": []}, "6": {"id": 6, "label": "Silentcanyon", "x": 0.24628312863606983, "y": -0.18436578171091444, "reward": 300, "inEdge": [8], "outEdge": []}, "7": {"id": 7, "label": "Sandy Banks", "x": 0.011635423400129283, "y": 0.26548672566371684, "reward": 45, "inEdge": [1, 2], "outEdge": [4, 10]}, "8": {"id": 8, "label": "Courtdune", "x": 0.1997414350355527, "y": -0.0471976401179941, "reward": 30, "inEdge": [4], "outEdge": [9, 5, 6]}, "9": {"id": 9, "label": "Talonscar", "x": 0.19327731092436976, "y": 0.17994100294985252, "reward": 200, "inEdge": [10, 8], "outEdge": []}, "10": {"id": 10, "label": "Clearpoint", "x": 0.15061409179056237, "y": 0.3112094395280236, "reward": 30, "inEdge": [7], "outEdge": [9]}}, "start_nodes": [0], "end_nodes": [9, 6, 5], "clicks": [5, 9, 6], "cost_total": 320, "cost_path": 290, "cost_expected": 342.5, "path": [0, 1, 7, 10, 9], "trial_type": "roadtrip-plugin", "trial_index": 28, "time_elapsed": 797815, "internal_node_id": "0.0-3.0-5.0-6.0", "PID": 6, "trial": 7, "condition": "control", "pa": 1.0}, {"nodes": {"0": {"id": 0, "label": "Bigstand", "x": -0.3387201034259858, "y": 0.007374631268436578, "reward": 15, "inEdge": [], "outEdge": [2, 1]}, "1": {"id": 1, "label": "Brokenroost", "x": -0.2592113768584357, "y": 0.17994100294985252, "reward": 15, "inEdge": [0], "outEdge": [3]}, "2": {"id": 2, "label": "Grand Mesa", "x": -0.25080801551389786, "y": -0.09587020648967552, "reward": 45, "inEdge": [0], "outEdge": [3]}, "3": {"id": 3, "label": "Wildbank", "x": -0.16289592760180996, "y": 0.08112094395280237, "reward": 15, "inEdge": [1, 2], "outEdge": [5, 4]}, "4": {"id": 4, "label": "Barrendowns", "x": 0.056884292178409825, "y": -0.016224188790560472, "reward": 15, "inEdge": [3], "outEdge": [9, 6]}, "5": {"id": 5, "label": "Gravelburg", "x": 0.04395604395604396, "y": -0.27876106194690264, "reward": 45, "inEdge": [3], "outEdge": [9]}, "6": {"id": 6, "label": "Flatcity", "x": 0.1777634130575307, "y": 0.08702064896755163, "reward": 45, "inEdge": [4], "outEdge": [10]}, "7": {"id": 7, "label": "Goldenhowl", "x": 0.31932773109243695, "y": 0.16519174041297935, "reward": 200, "inEdge": [9], "outEdge": []}, "8": {"id": 8, "label": "Tightriver", "x": 0.3380736910148675, "y": -0.11209439528023599, "reward": 60, "inEdge": [9], "outEdge": []}, "9": {"id": 9, "label": "Paleville", "x": 0.2359405300581771, "y": -0.12536873156342182, "reward": 15, "inEdge": [4, 5], "outEdge": [7, 8]}, "10": {"id": 10, "label": "Dusty Summit", "x": 0.24692954104718812, "y": 0.2949852507374631, "reward": 100, "inEdge": [6], "outEdge": []}}, "start_nodes": [0], "end_nodes": [7, 10], "clicks": [10], "cost_total": 230, "cost_path": 220, "cost_expected": 260, "path": [0, 2, 3, 4, 6, 10], "trial_type": "roadtrip-plugin", "trial_index": 29, "time_elapsed": 829633, "internal_node_id": "0.0-3.0-5.0-7.0", "PID": 6, "trial": 8, "condition": "control", "pa": 1.0}, {"nodes": {"0": {"id": 0, "label": "Meekcreak", "x": -0.3160956690368455, "y": 0.24336283185840707, "reward": 45, "inEdge": [], "outEdge": [1, 2, 7]}, "1": {"id": 1, "label": "Onyxtrails", "x": -0.04201680672268908, "y": 0.1902654867256637, "reward": 30, "inEdge": [0], "outEdge": [10, 5]}, "2": {"id": 2, "label": "Richport", "x": -0.28829993535875886, "y": -0.0752212389380531, "reward": 45, "inEdge": [0], "outEdge": [3, 8]}, "3": {"id": 3, "label": "Wolfdune", "x": 0.03878474466709761, "y": -0.09734513274336283, "reward": 30, "inEdge": [2, 8], "outEdge": [4]}, "4": {"id": 4, "label": "Longwater", "x": 0.19198448610213317, "y": -0.1430678466076696, "reward": 400, "inEdge": [3, 5], "outEdge": []}, "5": {"id": 5, "label": "Bittersprings", "x": 0.13380736910148675, "y": 0.007374631268436578, "reward": 30, "inEdge": [7, 1], "outEdge": [4, 6]}, "6": {"id": 6, "label": "Thornford", "x": 0.32191338073691017, "y": 0.0029498525073746312, "reward": 100, "inEdge": [5], "outEdge": []}, "7": {"id": 7, "label": "Shady Hallow", "x": -0.07433742727860375, "y": 0.02064896755162242, "reward": 60, "inEdge": [0], "outEdge": [5]}, "8": {"id": 8, "label": "Plainbellow", "x": -0.007110536522301228, "y": -0.24336283185840707, "reward": 15, "inEdge": [2], "outEdge": [3]}, "9": {"id": 9, "label": "Copper Chapel", "x": 0.29282482223658696, "y": 0.13421828908554573, "reward": 100, "inEdge": [10], "outEdge": []}, "10": {"id": 10, "label": "Ruby Port", "x": 0.2178409825468649, "y": 0.23893805309734514, "reward": 30, "inEdge": [1], "outEdge": [9]}}, "start_nodes": [0], "end_nodes": [9, 4, 6], "clicks": [8], "cost_total": 500, "cost_path": 490, "cost_expected": 350, "path": [0, 2, 8, 3, 4], "trial_type": "roadtrip-plugin", "trial_index": 20, "time_elapsed": 1283836, "internal_node_id": "0.0-3.0-5.0-0.0", "PID": 7, "trial": 1, "condition": "control", "pa": 0.0}, {"nodes": {"0": {"id": 0, "label": "Whitecrag", "x": -0.31092436974789917, "y": -0.17256637168141592, "reward": 15, "inEdge": [], "outEdge": [1, 2]}, "1": {"id": 1, "label": "Numbbanks", "x": -0.15126050420168066, "y": 0.168141592920354, "reward": 15, "inEdge": [0], "outEdge": [7]}, "2": {"id": 2, "label": "Old Hill", "x": -0.09243697478991597, "y": 0.03687315634218289, "reward": 30, "inEdge": [0], "outEdge": [7, 3]}, "3": {"id": 3, "label": "Snakebank", "x": 0.014867485455720749, "y": -0.20206489675516223, "reward": 15, "inEdge": [2], "outEdge": [4]}, "4": {"id": 4, "label": "Strongcreak", "x": 0.10213316095669037, "y": -0.03687315634218289, "reward": 15, "inEdge": [7, 3], "outEdge": [8]}, "5": {"id": 5, "label": "Grimerock", "x": 0.27407886231415646, "y": -0.02064896755162242, "reward": 200, "inEdge": [8], "outEdge": []}, "6": {"id": 6, "label": "Silentcanyon", "x": 0.24628312863606983, "y": -0.18436578171091444, "reward": 100, "inEdge": [8], "outEdge": []}, "7": {"id": 7, "label": "Sandy Banks", "x": 0.011635423400129283, "y": 0.26548672566371684, "reward": 15, "inEdge": [1, 2], "outEdge": [4, 10]}, "8": {"id": 8, "label": "Courtdune", "x": 0.1997414350355527, "y": -0.0471976401179941, "reward": 60, "inEdge": [4], "outEdge": [9, 5, 6]}, "9": {"id": 9, "label": "Talonscar", "x": 0.19327731092436976, "y": 0.17994100294985252, "reward": 200, "inEdge": [10, 8], "outEdge": []}, "10": {"id": 10, "label": "Clearpoint", "x": 0.15061409179056237, "y": 0.3112094395280236, "reward": 60, "inEdge": [7], "outEdge": [9]}}, "start_nodes": [0], "end_nodes": [9, 6, 5], "clicks": [2, 1, 4, 10, 6], "cost_total": 355, "cost_path": 305, "cost_expected": 405, "path": [0, 1, 7, 4, 8, 5], "trial_type": "roadtrip-plugin", "trial_index": 21, "time_elapsed": 1538507, "internal_node_id": "0.0-3.0-5.0-1.0", "PID": 7, "trial": 2, "condition": "control", "pa": 0.0}, {"nodes": {"0": {"id": 0, "label": "Scornvale", "x": -0.36199095022624433, "y": 0.014749262536873156, "reward": 45, "inEdge": [], "outEdge": [2, 3]}, "1": {"id": 1, "label": "Silentedge", "x": -0.13186813186813187, "y": 0.20648967551622419, "reward": 45, "inEdge": [2], "outEdge": [6, 5]}, "2": {"id": 2, "label": "Wolftrails", "x": -0.24434389140271492, "y": 0.25958702064896755, "reward": 30, "inEdge": [0], "outEdge": [1]}, "3": {"id": 3, "label": "Smoothmountain", "x": -0.2094376212023271, "y": -0.0752212389380531, "reward": 30, "inEdge": [0], "outEdge": [9, 5]}, "4": {"id": 4, "label": "Serpentcrag", "x": 0.3076923076923077, "y": 0.15486725663716813, "reward": 300, "inEdge": [6], "outEdge": []}, "5": {"id": 5, "label": "Purestone", "x": -0.09631544925662573, "y": -0.008849557522123894, "reward": 45, "inEdge": [3, 1], "outEdge": [6]}, "6": {"id": 6, "label": "Thornburg", "x": 0.15966386554621848, "y": 0.058997050147492625, "reward": 30, "inEdge": [1, 5, 9], "outEdge": [4, 7]}, "7": {"id": 7, "label": "Wildbend", "x": 0.30187459599224303, "y": -0.09144542772861357, "reward": 300, "inEdge": [6, 10, 8], "outEdge": []}, "8": {"id": 8, "label": "Silverstead", "x": 0.16095669036845509, "y": -0.084070796460177, "reward": 15, "inEdge": [9], "outEdge": [7]}, "9": {"id": 9, "label": "Greedpass", "x": 0.0019392372333548805, "y": -0.252212389380531, "reward": 30, "inEdge": [3], "outEdge": [6, 10, 8]}, "10": {"id": 10, "label": "Sinvale", "x": 0.20038784744667099, "y": -0.3112094395280236, "reward": 30, "inEdge": [9], "outEdge": [7]}}, "start_nodes": [0], "end_nodes": [7, 4], "clicks": [4, 7, 3, 2, 5, 9, 6], "cost_total": 460, "cost_path": 390, "cost_expected": 460, "path": [0, 3, 9, 6, 7], "trial_type": "roadtrip-plugin", "trial_index": 22, "time_elapsed": 1771734, "internal_node_id": "0.0-3.0-5.0-2.0", "PID": 7, "trial": 3, "condition": "control", "pa": 1.0}, {"nodes": {"0": {"id": 0, "label": "Bigstand", "x": -0.3387201034259858, "y": 0.007374631268436578, "reward": 45, "inEdge": [], "outEdge": [2, 1]}, "1": {"id": 1, "label": "Brokenroost", "x": -0.2592113768584357, "y": 0.17994100294985252, "reward": 30, "inEdge": [0], "outEdge": [3]}, "2": {"id": 2, "label": "Grand Mesa", "x": -0.25080801551389786, "y": -0.09587020648967552, "reward": 15, "inEdge": [0], "outEdge": [3]}, "3": {"id": 3, "label": "Wildbank", "x": -0.16289592760180996, "y": 0.08112094395280237, "reward": 60, "inEdge": [1, 2], "outEdge": [5, 4]}, "4": {"id": 4, "label": "Barrendowns", "x": 0.056884292178409825, "y": -0.016224188790560472, "reward": 15, "inEdge": [3], "outEdge": [9, 6]}, "5": {"id": 5, "label": "Gravelburg", "x": 0.04395604395604396, "y": -0.27876106194690264, "reward": 45, "inEdge": [3], "outEdge": [9]}, "6": {"id": 6, "label": "Flatcity", "x": 0.1777634130575307, "y": 0.08702064896755163, "reward": 30, "inEdge": [4], "outEdge": [10]}, "7": {"id": 7, "label": "Goldenhowl", "x": 0.31932773109243695, "y": 0.16519174041297935, "reward": 300, "inEdge": [9], "outEdge": []}, "8": {"id": 8, "label": "Tightriver", "x": 0.3380736910148675, "y": -0.11209439528023599, "reward": 15, "inEdge": [9], "outEdge": []}, "9": {"id": 9, "label": "Paleville", "x": 0.2359405300581771, "y": -0.12536873156342182, "reward": 45, "inEdge": [4, 5], "outEdge": [7, 8]}, "10": {"id": 10, "label": "Dusty Summit", "x": 0.24692954104718812, "y": 0.2949852507374631, "reward": 300, "inEdge": [6], "outEdge": []}}, "start_nodes": [0], "end_nodes": [7, 10], "clicks": [7, 10, 1, 2, 9, 6], "cost_total": 480, "cost_path": 420, "cost_expected": 480, "path": [0, 2, 3, 4, 6, 10], "trial_type": "roadtrip-plugin", "trial_index": 23, "time_elapsed": 1943449, "internal_node_id": "0.0-3.0-5.0-3.0", "PID": 7, "trial": 4, "condition": "control", "pa": 1.0}, {"nodes": {"0": {"id": 0, "label": "Quickbanks", "x": -0.2275371687136393, "y": -0.09587020648967552, "reward": 30, "inEdge": [], "outEdge": [1, 2, 8]}, "1": {"id": 1, "label": "Copper Crag", "x": -0.08338720103425985, "y": 0.17699115044247787, "reward": 45, "inEdge": [0], "outEdge": [4]}, "2": {"id": 2, "label": "Scorncreak", "x": 0.012281835811247576, "y": -0.26253687315634217, "reward": 45, "inEdge": [0], "outEdge": [5, 9, 3]}, "3": {"id": 3, "label": "Thinpass", "x": 0.13574660633484162, "y": -0.02654867256637168, "reward": 45, "inEdge": [2, 8], "outEdge": [10, 6]}, "4": {"id": 4, "label": "Defiant Rock", "x": 0.12152553329023917, "y": 0.1415929203539823, "reward": 15, "inEdge": [1], "outEdge": [10]}, "5": {"id": 5, "label": "Bareriver", "x": 0.21331609566903684, "y": -0.14749262536873156, "reward": 15, "inEdge": [2], "outEdge": [6]}, "6": {"id": 6, "label": "Dodgelake", "x": 0.34841628959276016, "y": -0.13716814159292035, "reward": 200, "inEdge": [5, 3], "outEdge": []}, "7": {"id": 7, "label": "Dullgulch", "x": 0.2979961215255333, "y": -0.3230088495575221, "reward": 200, "inEdge": [9], "outEdge": []}, "8": {"id": 8, "label": "Paleflats", "x": -0.011635423400129283, "y": 0.017699115044247787, "reward": 60, "inEdge": [0], "outEdge": [3]}, "9": {"id": 9, "label": "Idlestream", "x": 0.23076923076923078, "y": -0.23008849557522124, "reward": 60, "inEdge": [2], "outEdge": [7]}, "10": {"id": 10, "label": "Drylanding", "x": 0.35423400129282484, "y": 0.032448377581120944, "reward": 400, "inEdge": [4, 3], "outEdge": []}}, "start_nodes": [0], "end_nodes": [6, 10, 7], "clicks": [7, 6, 10, 2, 1, 3, 9, 5], "cost_total": 370, "cost_path": 290, "cost_expected": 370, "path": [0, 2, 3, 6], "trial_type": "roadtrip-plugin", "trial_index": 24, "time_elapsed": 2107600, "internal_node_id": "0.0-3.0-5.0-4.0", "PID": 7, "trial": 5, "condition": "control", "pa": 1.0}, {"nodes": {"0": {"id": 0, "label": "Blindridge", "x": -0.3341952165481577, "y": 0.1976401179941003, "reward": 15, "inEdge": [], "outEdge": [1, 2]}, "1": {"id": 1, "label": "Lordssnag", "x": -0.16289592760180996, "y": 0.19321533923303835, "reward": 60, "inEdge": [0], "outEdge": [3, 4]}, "2": {"id": 2, "label": "Venombutte", "x": -0.23206205559146736, "y": -0.08112094395280237, "reward": 15, "inEdge": [0], "outEdge": [3]}, "3": {"id": 3, "label": "Narrowville", "x": -0.01098901098901099, "y": -0.17699115044247787, "reward": 15, "inEdge": [1, 2], "outEdge": [6, 5]}, "4": {"id": 4, "label": "Leadtrail", "x": 0.028442146089204912, "y": 0.23008849557522124, "reward": 15, "inEdge": [1], "outEdge": [10, 8]}, "5": {"id": 5, "label": "Swifttusk", "x": 0.17647058823529413, "y": -0.24336283185840707, "reward": 15, "inEdge": [3], "outEdge": [7]}, "6": {"id": 6, "label": "Desertburg", "x": 0.24499030381383322, "y": 0.011799410029498525, "reward": 30, "inEdge": [3, 8], "outEdge": [9, 10, 7]}, "7": {"id